,time,ax,ay,az,gx,gy,gz,latitude,longitude,temperature,barometer_altitude,pressure
1440000,-0.042456,-1.01089,-0.016104,3.85,0.63,4.13,-0.17024,-89.5062,183.314,981.41,1,274.279
1440010,-0.042456,-1.01089,-0.016104,3.85,0.63,4.13,-0.17024,-89.5062,183.314,981.41,1,274.279
1440020,-0.042456,-1.01089,-0.016104,3.85,0.63,4.13,-0.17024,-89.5062,183.314,981.41,1,274.279
1440030,-0.0366,-1.01089,-0.01464,4.2,0.07,3.92,-0.17234,-89.5062,183.314,981.34,1,274.884
1440040,-0.0366,-1.01089,-0.01464,4.2,0.07,3.92,-0.17234,-89.5062,183.314,981.34,1,274.884
1440050,-0.0366,-1.01089,-0.01464,4.2,0.07,3.92,-0.17234,-89.5062,183.314,981.34,1,274.884
1440060,-0.037332,-1.0043,-0.016104,4.34,0.42,3.92,-0.17304,-89.5062,183.314,981.39,1,274.455
1440070,-0.037332,-1.0043,-0.016104,4.34,0.42,3.92,-0.17304,-89.5062,183.314,981.39,1,274.455
1440080,-0.050508,-1.01236,-0.008784,4.55,0.21,3.85,-0.16912,-89.5062,183.314,981.5,1,273.489
1440090,-0.050508,-1.01236,-0.008784,4.55,0.21,3.85,-0.16912,-89.5062,183.314,981.5,1,273.489
1440100,-0.050508,-1.01236,-0.008784,4.55,0.21,3.85,-0.16912,-89.5062,183.314,981.5,1,273.489
1440110,-0.03294,-1.00796,-0.027084,3.64,0.35,3.71,-0.16478,-89.5062,183.295,981.37,1,274.63
1440120,-0.03294,-1.00796,-0.027084,3.64,0.35,3.71,-0.16478,-89.5062,183.295,981.37,1,274.63
1440130,-0.0366,-1.01675,-0.01098,4.27,-0.28,3.92,-0.17136,-89.5062,183.295,981.4,1,274.367
1440140,-0.0366,-1.01675,-0.01098,4.27,-0.28,3.92,-0.17136,-89.5062,183.295,981.4,1,274.367
1440150,-0.0366,-1.01675,-0.01098,4.27,-0.28,3.92,-0.17136,-89.5062,183.295,981.4,1,274.367
1440160,-0.041724,-1.01162,-0.0183,4.2,-0.35,3.92,-0.16926,-89.5062,183.295,981.4,1,274.367
1440170,-0.041724,-1.01162,-0.0183,4.2,-0.35,3.92,-0.16926,-89.5062,183.295,981.4,1,274.367
1440180,-0.041724,-1.01162,-0.0183,4.2,-0.35,3.92,-0.16926,-89.5062,183.295,981.4,1,274.367
1440190,-0.048312,-1.01602,-0.02196,4.55,-0.77,3.57,-0.1715,-89.5062,183.295,981.44,1,273.987
1440200,-0.048312,-1.01602,-0.02196,4.55,-0.77,3.57,-0.1715,-89.5062,183.295,981.44,1,273.987
1440210,-0.048312,-1.01602,-0.02196,4.55,-0.77,3.57,-0.1715,-89.5062,183.295,981.44,1,273.987
1440220,-0.048312,-1.01602,-0.02196,4.55,-0.77,3.57,-0.1715,-89.5062,183.295,981.44,1,273.987
1440230,-0.049044,-1.01382,-0.023424,4.13,-0.49,3.57,-0.17108,-89.5062,183.295,981.38,1,274.523
1440240,-0.049044,-1.01382,-0.023424,4.13,-0.49,3.57,-0.17108,-89.5062,183.295,981.38,1,274.523
1440250,-0.041724,-1.01455,-0.00732,4.41,0.14,3.85,-0.1736,-89.5062,183.295,981.43,1,274.084
1440260,-0.041724,-1.01455,-0.00732,4.41,0.14,3.85,-0.1736,-89.5062,183.295,981.43,1,274.084
1440270,-0.041724,-1.01455,-0.00732,4.41,0.14,3.85,-0.1736,-89.5062,183.295,981.43,1,274.084
1440280,-0.043188,-1.01455,-0.019764,4.76,-0.07,4.13,-0.16898,-89.5062,183.295,981.44,1,273.997
1440290,-0.043188,-1.01455,-0.019764,4.76,-0.07,4.13,-0.16898,-89.5062,183.295,981.44,1,273.997
1440300,-0.043188,-1.01455,-0.019764,4.76,-0.07,4.13,-0.16898,-89.5062,183.295,981.44,1,273.997
1440310,-0.044652,-1.0065,-0.016836,4.2,0.84,3.78,-0.1757,-89.5062,183.288,981.41,1,274.251
1440320,-0.044652,-1.0065,-0.016836,4.2,0.84,3.78,-0.1757,-89.5062,183.288,981.41,1,274.251
1440330,-0.05124,-1.0087,-0.021228,4.2,0.56,3.78,-0.17206,-89.5062,183.288,981.43,1,274.093
1440340,-0.05124,-1.0087,-0.021228,4.2,0.56,3.78,-0.17206,-89.5062,183.288,981.43,1,274.093
1440350,-0.05124,-1.0087,-0.021228,4.2,0.56,3.78,-0.17206,-89.5062,183.288,981.43,1,274.093
1440360,-0.045384,-1.01162,-0.042456,4.62,0.63,3.99,-0.16786,-89.5062,183.288,981.37,1,274.611
1440370,-0.045384,-1.01162,-0.042456,4.62,0.63,3.99,-0.16786,-89.5062,183.288,981.37,1,274.611
1440380,-0.038796,-1.00723,-0.008784,4.41,0.91,3.71,-0.16758,-89.5062,183.288,981.41,1,274.241
1440390,-0.038796,-1.00723,-0.008784,4.41,0.91,3.71,-0.16758,-89.5062,183.288,981.41,1,274.241
1440400,-0.038796,-1.00723,-0.008784,4.41,0.91,3.71,-0.16758,-89.5062,183.288,981.41,1,274.241
1440410,-0.038796,-1.00723,-0.008784,4.41,0.91,3.71,-0.16758,-89.5062,183.288,981.41,1,274.241
1440420,-0.038796,-1.00723,-0.008784,4.41,0.91,3.71,-0.16758,-89.5062,183.288,981.41,1,274.241
1440430,-0.04392,-1.01382,-0.0183,3.85,1.05,4.13,-0.16926,-89.5062,183.288,981.4,1,274.329
1440440,-0.04392,-1.01382,-0.0183,3.85,1.05,4.13,-0.16926,-89.5062,183.288,981.4,1,274.329
1440450,-0.04758,-1.01236,-0.0183,4.27,0.98,3.99,-0.16744,-89.5062,183.288,981.5,1,273.461
1440460,-0.04758,-1.01236,-0.0183,4.27,0.98,3.99,-0.16744,-89.5062,183.288,981.5,1,273.461
1440470,-0.04758,-1.01236,-0.0183,4.27,0.98,3.99,-0.16744,-89.5062,183.288,981.5,1,273.461
1440480,-0.038064,-1.01748,-0.019032,4.62,0.63,4.06,-0.16856,-89.5062,183.288,981.42,1,274.172
1440490,-0.038064,-1.01748,-0.019032,4.62,0.63,4.06,-0.16856,-89.5062,183.288,981.42,1,274.172
1440500,-0.038064,-1.01748,-0.019032,4.62,0.63,4.06,-0.16856,-89.5062,183.288,981.42,1,274.172
1440510,-0.034404,-1.01675,-0.022692,3.64,0.56,4.2,-0.16912,-89.5062,183.268,981.45,1,273.909
1440520,-0.034404,-1.01675,-0.022692,3.64,0.56,4.2,-0.16912,-89.5062,183.268,981.45,1,273.909
1440530,-0.040992,-1.01455,-0.015372,4.48,0.28,3.57,-0.17052,-89.5062,183.268,981.4,1,274.348
1440540,-0.040992,-1.01455,-0.015372,4.48,0.28,3.57,-0.17052,-89.5062,183.268,981.4,1,274.348
1440550,-0.040992,-1.01455,-0.015372,4.48,0.28,3.57,-0.17052,-89.5062,183.268,981.4,1,274.348
1440560,-0.035136,-1.01089,-0.021228,4.55,-0.42,3.71,-0.1687,-89.5062,183.268,981.4,1,274.357
1440570,-0.035136,-1.01089,-0.021228,4.55,-0.42,3.71,-0.1687,-89.5062,183.268,981.4,1,274.357
1440580,-0.034404,-1.0087,-0.02196,4.34,-0.91,3.64,-0.1722,-89.5062,183.268,981.52,1,273.295
1440590,-0.034404,-1.0087,-0.02196,4.34,-0.91,3.64,-0.1722,-89.5062,183.268,981.52,1,273.295
1440600,-0.034404,-1.0087,-0.02196,4.34,-0.91,3.64,-0.1722,-89.5062,183.268,981.52,1,273.295
1440610,-0.034404,-1.0087,-0.02196,4.34,-0.91,3.64,-0.1722,-89.5062,183.268,981.52,1,273.295
1440620,-0.034404,-1.0087,-0.02196,4.34,-0.91,3.64,-0.1722,-89.5062,183.268,981.52,1,273.295
1440630,-0.041724,-1.01309,-0.019032,4.2,-0.7,3.85,-0.1729,-89.5062,183.268,981.38,1,274.514
1440640,-0.041724,-1.01309,-0.019032,4.2,-0.7,3.85,-0.1729,-89.5062,183.268,981.38,1,274.514
1440650,-0.022692,-1.0226,-0.06954,3.85,-0.35,3.78,-0.1743,-89.5062,183.268,981.53,1,273.198
1440660,-0.022692,-1.0226,-0.06954,3.85,-0.35,3.78,-0.1743,-89.5062,183.268,981.53,1,273.198
1440670,-0.022692,-1.0226,-0.06954,3.85,-0.35,3.78,-0.1743,-89.5062,183.268,981.53,1,273.198
1440680,-0.038064,-1.027,-0.019032,4.41,-0.42,3.92,-0.17066,-89.5062,183.268,981.4,1,274.348
1440690,-0.038064,-1.027,-0.019032,4.41,-0.42,3.92,-0.17066,-89.5062,183.268,981.4,1,274.348
1440700,-0.054168,-1.00943,-0.01464,4.13,-0.21,3.99,-0.17934,-89.5062,183.247,981.44,1,273.997
1440710,-0.054168,-1.00943,-0.01464,4.13,-0.21,3.99,-0.17934,-89.5062,183.247,981.44,1,273.997
1440720,-0.054168,-1.00943,-0.01464,4.13,-0.21,3.99,-0.17934,-89.5062,183.247,981.44,1,273.997
1440730,-0.055632,-1.0087,-0.023424,4.69,-0.35,3.71,-0.1757,-89.5062,183.247,981.44,1,273.997
1440740,-0.055632,-1.0087,-0.023424,4.69,-0.35,3.71,-0.1757,-89.5062,183.247,981.44,1,273.997
1440750,-0.055632,-1.0087,-0.023424,4.69,-0.35,3.71,-0.1757,-89.5062,183.247,981.44,1,273.997
1440760,-0.04392,-1.01382,-0.016836,4.48,0.14,3.99,-0.17234,-89.5062,183.247,981.51,1,273.383
1440770,-0.04392,-1.01382,-0.016836,4.48,0.14,3.99,-0.17234,-89.5062,183.247,981.51,1,273.383
1440780,-0.04758,-1.01309,-0.019764,4.48,0.7,3.92,-0.1736,-89.5062,183.247,981.45,1,273.891
1440790,-0.04758,-1.01309,-0.019764,4.48,0.7,3.92,-0.1736,-89.5062,183.247,981.45,1,273.891
1440800,-0.04758,-1.01309,-0.019764,4.48,0.7,3.92,-0.1736,-89.5062,183.247,981.45,1,273.891
1440810,-0.04758,-1.01309,-0.019764,4.48,0.7,3.92,-0.1736,-89.5062,183.247,981.45,1,273.891
1440820,-0.04758,-1.01309,-0.019764,4.48,0.7,3.92,-0.1736,-89.5062,183.247,981.51,1,273.373
1440830,-0.049044,-1.01309,-0.012444,3.92,1.33,3.99,-0.1743,-89.5062,183.247,981.51,1,273.373
1440840,-0.049044,-1.01309,-0.012444,3.92,1.33,3.99,-0.1743,-89.5062,183.247,981.51,1,273.373
1440850,-0.045384,-1.01382,-0.013908,4.34,1.4,3.85,-0.17122,-89.5062,183.247,981.41,1,274.26
1440860,-0.045384,-1.01382,-0.013908,4.34,1.4,3.85,-0.17122,-89.5062,183.247,981.41,1,274.26
1440870,-0.045384,-1.01382,-0.013908,4.34,1.4,3.85,-0.17122,-89.5062,183.247,981.41,1,274.26
1440880,-0.038796,-1.01236,-0.011712,4.62,1.26,3.64,-0.17066,-89.5062,183.247,981.43,1,274.056
1440890,-0.038796,-1.01236,-0.011712,4.62,1.26,3.64,-0.17066,-89.5062,183.247,981.43,1,274.056
1440900,-0.044652,-1.01748,-0.016836,4.69,1.19,3.78,-0.16996,-89.5062,183.242,981.43,1,274.075
1440910,-0.044652,-1.01748,-0.016836,4.69,1.19,3.78,-0.16996,-89.5062,183.242,981.43,1,274.075
1440920,-0.044652,-1.01748,-0.016836,4.69,1.19,3.78,-0.16996,-89.5062,183.242,981.43,1,274.075
1440930,-0.041724,-1.00723,-0.0183,4.13,1.68,3.92,-0.16506,-89.5062,183.242,981.54,1,273.129
1440940,-0.041724,-1.00723,-0.0183,4.13,1.68,3.92,-0.16506,-89.5062,183.242,981.54,1,273.129
1440950,-0.041724,-1.00723,-0.0183,4.13,1.68,3.92,-0.16506,-89.5062,183.242,981.54,1,273.129
1440960,-0.041724,-1.01602,-0.015372,4.55,1.26,3.64,-0.1652,-89.5062,183.242,981.38,1,274.532
1440970,-0.041724,-1.01602,-0.015372,4.55,1.26,3.64,-0.1652,-89.5062,183.242,981.38,1,274.532
1440980,-0.035136,-1.01309,-0.008784,4.34,0.0,3.64,-0.17024,-89.5062,183.242,981.39,1,274.399
1440990,-0.035136,-1.01309,-0.008784,4.34,0.0,3.64,-0.17024,-89.5062,183.242,981.39,1,274.399
1441000,-0.035136,-1.01309,-0.008784,4.34,0.0,3.64,-0.17024,-89.5062,183.242,981.39,1,274.399
1441010,-0.035136,-1.01309,-0.008784,4.34,0.0,3.64,-0.17024,-89.5062,183.242,981.39,1,274.399
1441020,-0.038064,-1.01894,-0.013908,3.99,0.0,4.06,-0.1652,-89.5062,183.242,981.44,1,273.987
1441030,-0.038064,-1.01894,-0.013908,3.99,0.0,4.06,-0.1652,-89.5062,183.242,981.44,1,273.987
1441040,-0.038064,-1.01894,-0.013908,3.99,0.0,4.06,-0.1652,-89.5062,183.242,981.44,1,273.987
1441050,-0.043188,-1.01382,-0.0183,4.34,-1.26,3.99,-0.16576,-89.5062,183.242,981.49,1,273.558
1441060,-0.043188,-1.01382,-0.0183,4.34,-1.26,3.99,-0.16576,-89.5062,183.242,981.49,1,273.558
1441070,-0.043188,-1.01382,-0.0183,4.34,-1.26,3.99,-0.16576,-89.5062,183.242,981.49,1,273.558
1441080,-0.045384,-1.01382,-0.027084,4.48,-0.77,3.85,-0.17164,-89.5062,183.242,981.47,1,273.733
1441090,-0.045384,-1.01382,-0.027084,4.48,-0.77,3.85,-0.17164,-89.5062,183.242,981.47,1,273.733
1441100,-0.045384,-1.01382,-0.02196,4.41,-0.91,4.06,-0.16856,-89.5062,183.225,981.36,1,274.68
1441110,-0.045384,-1.01382,-0.02196,4.41,-0.91,4.06,-0.16856,-89.5062,183.225,981.36,1,274.68
1441120,-0.045384,-1.01382,-0.02196,4.41,-0.91,4.06,-0.16856,-89.5062,183.225,981.36,1,274.68
1441130,-0.053436,-1.00943,-0.012444,4.48,-0.7,4.06,-0.16982,-89.5062,183.225,981.41,1,274.26
1441140,-0.053436,-1.00943,-0.012444,4.48,-0.7,4.06,-0.16982,-89.5062,183.225,981.41,1,274.26
1441150,-0.04758,-1.01748,-0.01464,3.99,-0.63,4.13,-0.16954,-89.5062,183.225,981.4,1,274.348
1441160,-0.04758,-1.01748,-0.01464,3.99,-0.63,4.13,-0.16954,-89.5062,183.225,981.4,1,274.348
1441170,-0.04758,-1.01748,-0.01464,3.99,-0.63,4.13,-0.16954,-89.5062,183.225,981.4,1,274.348
1441180,-0.051972,-1.01016,-0.028548,4.34,-0.49,3.5,-0.16912,-89.5062,183.225,981.38,1,274.504
1441190,-0.051972,-1.01016,-0.028548,4.34,-0.49,3.5,-0.16912,-89.5062,183.225,981.38,1,274.504
1441200,-0.051972,-1.01016,-0.028548,4.34,-0.49,3.5,-0.16912,-89.5062,183.225,981.38,1,274.504
1441210,-0.051972,-1.01016,-0.028548,4.34,-0.49,3.5,-0.16912,-89.5062,183.225,981.38,1,274.504
1441220,-0.04026,-1.01382,-0.0183,4.27,-0.49,3.92,-0.17234,-89.5062,183.225,981.43,1,274.075
1441230,-0.04026,-1.01382,-0.0183,4.27,-0.49,3.92,-0.17234,-89.5062,183.225,981.43,1,274.075
1441240,-0.04026,-1.01382,-0.0183,4.27,-0.49,3.92,-0.17234,-89.5062,183.225,981.43,1,274.075
1441250,-0.04392,-1.01748,-0.022692,4.69,0.21,3.57,-0.1708,-89.5062,183.225,981.43,1,274.075
1441260,-0.04392,-1.01748,-0.022692,4.69,0.21,3.57,-0.1708,-89.5062,183.225,981.43,1,274.075
1441270,-0.04392,-1.01748,-0.022692,4.69,0.21,3.57,-0.1708,-89.5062,183.225,981.41,1,274.269
1441280,-0.038796,-1.01309,-0.016836,4.2,0.0,4.13,-0.17136,-89.5062,183.225,981.41,1,274.269
1441290,-0.038796,-1.01309,-0.016836,4.2,0.0,4.13,-0.17136,-89.5062,183.225,981.41,1,274.269
1441300,-0.059292,-1.00064,0.012444,4.27,0.56,3.99,-0.16716,-89.5062,183.205,981.35,1,274.768
1441310,-0.059292,-1.00064,0.012444,4.27,0.56,3.99,-0.16716,-89.5062,183.205,981.35,1,274.768
1441320,-0.059292,-1.00064,0.012444,4.27,0.56,3.99,-0.16716,-89.5062,183.205,981.35,1,274.768
1441330,-0.045384,-1.01309,-0.019764,4.62,0.84,3.85,-0.17318,-89.5062,183.205,981.46,1,273.821
1441340,-0.045384,-1.01309,-0.019764,4.62,0.84,3.85,-0.17318,-89.5062,183.205,981.46,1,273.821
1441350,-0.04758,-1.01528,-0.008052,4.41,1.05,3.85,-0.16884,-89.5062,183.205,981.42,1,274.172
1441360,-0.04758,-1.01528,-0.008052,4.41,1.05,3.85,-0.16884,-89.5062,183.205,981.42,1,274.172
1441370,-0.04758,-1.01528,-0.008052,4.41,1.05,3.85,-0.16884,-89.5062,183.205,981.42,1,274.172
1441380,-0.043188,-1.01162,-0.016836,4.2,1.26,3.92,-0.16982,-89.5062,183.205,981.39,1,274.408
1441390,-0.043188,-1.01162,-0.016836,4.2,1.26,3.92,-0.16982,-89.5062,183.205,981.39,1,274.408
1441400,-0.043188,-1.01162,-0.016836,4.2,1.26,3.92,-0.16982,-89.5062,183.205,981.39,1,274.408
1441410,-0.043188,-1.01162,-0.016836,4.2,1.26,3.92,-0.16982,-89.5062,183.205,981.39,1,274.408
1441420,-0.052704,-1.01382,-0.004392,3.92,0.77,3.71,-0.17178,-89.5062,183.205,981.5,1,273.461
1441430,-0.052704,-1.01382,-0.004392,3.92,0.77,3.71,-0.17178,-89.5062,183.205,981.5,1,273.461
1441440,-0.052704,-1.01382,-0.004392,3.92,0.77,3.71,-0.17178,-89.5062,183.205,981.5,1,273.461
1441450,-0.052704,-1.01162,-0.010248,4.34,0.63,4.06,-0.17108,-89.5062,183.205,981.52,1,273.295
1441460,-0.052704,-1.01162,-0.010248,4.34,0.63,4.06,-0.17108,-89.5062,183.205,981.52,1,273.295
1441470,-0.035868,-1.01236,-0.013176,4.2,0.84,3.71,-0.17304,-89.5062,183.205,981.36,1,274.68
1441480,-0.035868,-1.01236,-0.013176,4.2,0.84,3.71,-0.17304,-89.5062,183.205,981.36,1,274.68
1441490,-0.035868,-1.01236,-0.013176,4.2,0.84,3.71,-0.17304,-89.5062,183.205,981.36,1,274.68
1441500,-0.04758,-1.0087,-0.019764,4.55,0.42,4.13,-0.17276,-89.5062,183.201,981.46,1,273.812
1441510,-0.04758,-1.0087,-0.019764,4.55,0.42,4.13,-0.17276,-89.5062,183.201,981.46,1,273.812
1441520,-0.04758,-1.0087,-0.019764,4.55,0.42,4.13,-0.17276,-89.5062,183.201,981.46,1,273.812
1441530,-0.040992,-1.01455,-0.005856,4.41,0.35,3.99,-0.17346,-89.5062,183.201,981.41,1,274.26
1441540,-0.040992,-1.01455,-0.005856,4.41,0.35,3.99,-0.17346,-89.5062,183.201,981.41,1,274.26
1441550,-0.037332,-1.01675,-0.013176,4.06,0.21,3.5,-0.1708,-89.5062,183.201,981.38,1,274.542
1441560,-0.037332,-1.01675,-0.013176,4.06,0.21,3.5,-0.1708,-89.5062,183.201,981.38,1,274.542
1441570,-0.037332,-1.01675,-0.013176,4.06,0.21,3.5,-0.1708,-89.5062,183.201,981.38,1,274.542
1441580,-0.05124,-1.01162,-0.020496,4.41,0.07,3.99,-0.1757,-89.5062,183.201,981.37,1,274.583
1441590,-0.05124,-1.01162,-0.020496,4.41,0.07,3.99,-0.1757,-89.5062,183.201,981.37,1,274.583
1441600,-0.05124,-1.01162,-0.020496,4.41,0.07,3.99,-0.1757,-89.5062,183.201,981.37,1,274.583
1441610,-0.05124,-1.01162,-0.020496,4.41,0.07,3.99,-0.1757,-89.5062,183.201,981.37,1,274.583
1441620,-0.046116,-1.00943,-0.02562,4.2,-0.56,3.99,-0.17038,-89.5062,183.201,981.32,1,275.012
1441630,-0.046116,-1.00943,-0.02562,4.2,-0.56,3.99,-0.17038,-89.5062,183.201,981.32,1,275.012
1441640,-0.046116,-1.00943,-0.02562,4.2,-0.56,3.99,-0.17038,-89.5062,183.201,981.32,1,275.012
1441650,-0.044652,-1.00943,-0.019764,4.62,0.14,3.85,-0.1729,-89.5062,183.201,981.4,1,274.329
1441660,-0.044652,-1.00943,-0.019764,4.62,0.14,3.85,-0.1729,-89.5062,183.201,981.4,1,274.329
1441670,-0.040992,-1.00577,-0.013908,4.06,-0.21,3.92,-0.17318,-89.5062,183.201,981.44,1,273.978
1441680,-0.040992,-1.00577,-0.013908,4.06,-0.21,3.92,-0.17318,-89.5062,183.201,981.44,1,273.978
1441690,-0.040992,-1.00577,-0.013908,4.06,-0.21,3.92,-0.17318,-89.5062,183.201,981.44,1,273.978
1441700,-0.034404,-0.99918,-0.009516,4.41,-0.28,3.5,-0.17318,-89.5062,183.189,981.35,1,274.768
1441710,-0.034404,-0.99918,-0.009516,4.41,-0.28,3.5,-0.17318,-89.5062,183.189,981.35,1,274.768
1441720,-0.034404,-0.99918,-0.009516,4.41,-0.28,3.5,-0.17318,-89.5062,183.189,981.49,1,273.567
1441730,-0.052704,-1.01821,-0.016836,4.34,0.35,3.92,-0.1736,-89.5062,183.189,981.49,1,273.567
1441740,-0.052704,-1.01821,-0.016836,4.34,0.35,3.92,-0.1736,-89.5062,183.189,981.49,1,273.567
1441750,-0.04026,-1.0065,-0.013908,4.55,0.63,3.85,-0.1736,-89.5062,183.189,981.4,1,274.339
1441760,-0.04026,-1.0065,-0.013908,4.55,0.63,3.85,-0.1736,-89.5062,183.189,981.4,1,274.339
1441770,-0.04026,-1.0065,-0.013908,4.55,0.63,3.85,-0.1736,-89.5062,183.189,981.4,1,274.339
1441780,-0.0366,-1.01602,-0.026352,4.27,0.7,3.85,-0.16814,-89.5062,183.189,981.49,1,273.521
1441790,-0.0366,-1.01602,-0.026352,4.27,0.7,3.85,-0.16814,-89.5062,183.189,981.49,1,273.521
1441800,-0.0366,-1.01602,-0.026352,4.27,0.7,3.85,-0.16814,-89.5062,183.189,981.49,1,273.521
1441810,-0.0366,-1.01602,-0.026352,4.27,0.7,3.85,-0.16814,-89.5062,183.189,981.49,1,273.521
1441820,-0.043188,-1.01455,-0.009516,4.34,0.98,4.06,-0.1687,-89.5062,183.189,981.48,1,273.618
1441830,-0.043188,-1.01455,-0.009516,4.34,0.98,4.06,-0.1687,-89.5062,183.189,981.48,1,273.618
1441840,-0.043188,-1.01455,-0.009516,4.34,0.98,4.06,-0.1687,-89.5062,183.189,981.48,1,273.618
1441850,-0.04392,-1.01455,-0.024156,4.34,0.84,4.06,-0.17318,-89.5062,183.189,981.36,1,274.671
1441860,-0.04392,-1.01455,-0.024156,4.34,0.84,4.06,-0.17318,-89.5062,183.189,981.36,1,274.671
1441870,-0.04392,-1.00943,-0.01464,4.34,0.49,3.85,-0.16646,-89.5062,183.189,981.31,1,275.11
1441880,-0.04392,-1.00943,-0.01464,4.34,0.49,3.85,-0.16646,-89.5062,183.189,981.31,1,275.11
1441890,-0.04392,-1.00943,-0.01464,4.34,0.49,3.85,-0.16646,-89.5062,183.189,981.31,1,275.11
1441900,-0.03294,-1.01236,-0.017568,4.62,0.98,4.06,-0.17052,-89.5062,183.192,981.46,1,273.812
1441910,-0.03294,-1.01236,-0.017568,4.62,0.98,4.06,-0.17052,-89.5062,183.192,981.46,1,273.812
1441920,-0.041724,-1.0065,-0.015372,4.27,0.63,4.06,-0.16884,-89.5062,183.192,981.39,1,274.427
1441930,-0.041724,-1.0065,-0.015372,4.27,0.63,4.06,-0.16884,-89.5062,183.192,981.39,1,274.427
1441940,-0.041724,-1.0065,-0.015372,4.27,0.63,4.06,-0.16884,-89.5062,183.192,981.39,1,274.427
1441950,-0.042456,-1.01528,-0.043188,4.62,-0.56,3.71,-0.16814,-89.5062,183.192,981.4,1,274.329
1441960,-0.042456,-1.01528,-0.043188,4.62,-0.56,3.71,-0.16814,-89.5062,183.192,981.4,1,274.329
1441970,-0.042456,-1.01528,-0.043188,4.62,-0.56,3.71,-0.16814,-89.5062,183.192,981.4,1,274.329
1441980,-0.046848,-1.00577,-0.00366,3.99,0.0,3.99,-0.1673,-89.5062,183.191,981.45,1,273.909
1441990,-0.046848,-1.00577,-0.00366,3.99,0.0,3.99,-0.1673,-89.5062,183.191,981.45,1,273.909
1442000,-0.049776,-1.00723,-0.0183,4.06,-0.14,4.27,-0.16772,-89.5062,183.191,981.4,1,274.339
1442010,-0.049776,-1.00723,-0.0183,4.06,-0.14,4.27,-0.16772,-89.5062,183.191,981.4,1,274.339
1442020,-0.049776,-1.00723,-0.0183,4.06,-0.14,4.27,-0.16772,-89.5062,183.191,981.4,1,274.339
1442030,-0.046116,-1.01309,-0.013908,4.34,-0.35,3.78,-0.16828,-89.5062,183.191,981.35,1,274.787
1442040,-0.046116,-1.01309,-0.013908,4.34,-0.35,3.78,-0.16828,-89.5062,183.191,981.35,1,274.787
1442050,-0.042456,-1.01016,-0.016104,4.2,-0.49,4.27,-0.17024,-89.5062,183.191,981.36,1,274.68
1442060,-0.042456,-1.01016,-0.016104,4.2,-0.49,4.27,-0.17024,-89.5062,183.184,981.36,1,274.68
1442070,-0.042456,-1.01016,-0.016104,4.2,-0.49,4.27,-0.17024,-89.5062,183.184,981.36,1,274.68
1442080,-0.038064,-1.00943,-0.038064,3.85,-0.28,3.85,-0.17206,-89.5062,183.184,981.43,1,274.093
1442090,-0.038064,-1.00943,-0.038064,3.85,-0.28,3.85,-0.17206,-89.5062,183.184,981.43,1,274.093
1442100,-0.038064,-1.00943,-0.038064,3.85,-0.28,3.85,-0.17206,-89.5062,183.184,981.43,1,274.093
1442110,-0.055632,-0.994788,0.008784,4.2,-0.07,4.06,-0.1715,-89.5062,183.184,981.37,1,274.62
1442120,-0.055632,-0.994788,0.008784,4.2,-0.07,4.06,-0.1715,-89.5062,183.184,981.37,1,274.62
1442130,-0.048312,-1.01089,-0.01098,4.55,0.21,3.78,-0.17136,-89.5062,183.184,981.35,1,274.787
1442140,-0.048312,-1.01089,-0.01098,4.55,0.21,3.78,-0.17136,-89.5062,183.184,981.35,1,274.787
1442150,-0.048312,-1.01089,-0.01098,4.55,0.21,3.78,-0.17136,-89.5062,183.184,981.35,1,274.787
1442160,-0.045384,-1.01089,-0.016104,4.34,0.0,4.41,-0.17612,-89.5062,183.181,981.5,1,273.47
1442170,-0.045384,-1.01089,-0.016104,4.34,0.0,4.41,-0.17612,-89.5062,183.181,981.5,1,273.47
1442180,-0.055632,-1.02407,-0.020496,4.2,0.42,4.2,-0.17304,-89.5062,183.181,981.35,1,274.805
1442190,-0.055632,-1.02407,-0.020496,4.2,0.42,4.2,-0.17304,-89.5062,183.181,981.35,1,274.805
1442200,-0.055632,-1.02407,-0.020496,4.2,0.42,4.2,-0.17304,-89.5062,183.181,981.35,1,274.805
1442210,-0.045384,-1.01821,-0.027084,4.34,0.07,3.99,-0.1715,-89.5062,183.181,981.46,1,273.84
1442220,-0.045384,-1.01821,-0.027084,4.34,0.07,3.99,-0.1715,-89.5062,183.181,981.46,1,273.84
1442230,-0.045384,-1.01821,-0.027084,4.34,0.07,3.99,-0.1715,-89.5062,183.181,981.46,1,273.84
1442240,-0.050508,-1.0043,-0.001464,4.69,0.7,3.85,-0.1701,-89.5062,183.198,981.41,1,274.251
1442250,-0.050508,-1.0043,-0.001464,4.69,0.7,3.85,-0.1701,-89.5062,183.198,981.41,1,274.251
1442260,-0.046116,-1.01382,-0.019764,4.13,0.91,3.71,-0.16968,-89.5062,183.198,981.38,1,274.523
1442270,-0.046116,-1.01382,-0.019764,4.13,0.91,3.71,-0.16968,-89.5062,183.198,981.38,1,274.523
1442280,-0.046116,-1.01382,-0.019764,4.13,0.91,3.71,-0.16968,-89.5062,183.198,981.38,1,274.523
1442290,-0.046848,-1.00723,-0.017568,3.99,0.77,3.71,-0.16996,-89.5062,183.198,981.5,1,273.479
1442300,-0.046848,-1.00723,-0.017568,3.99,0.77,3.71,-0.16996,-89.5062,183.198,981.5,1,273.479
1442310,-0.046848,-1.00723,-0.017568,3.99,0.77,3.71,-0.16996,-89.5062,183.198,981.5,1,273.479
1442320,-0.051972,-1.01382,-0.009516,4.06,0.28,3.99,-0.17318,-89.5062,183.183,981.47,1,273.752
1442330,-0.051972,-1.01382,-0.009516,4.06,0.28,3.99,-0.17318,-89.5062,183.183,981.47,1,273.752
1442340,-0.035136,-1.01089,-0.027084,4.27,0.42,3.71,-0.1736,-89.5062,183.183,981.5,1,273.498
1442350,-0.035136,-1.01089,-0.027084,4.27,0.42,3.71,-0.1736,-89.5062,183.183,981.5,1,273.498
1442360,-0.035136,-1.01089,-0.027084,4.27,0.42,3.71,-0.1736,-89.5062,183.183,981.5,1,273.498
1442370,-0.045384,-1.01089,-0.016104,4.41,-0.42,3.78,-0.17122,-89.5062,183.183,981.33,1,274.981
1442380,-0.045384,-1.01089,-0.016104,4.41,-0.42,3.78,-0.17122,-89.5062,183.183,981.33,1,274.981
1442390,-0.045384,-1.01748,-0.020496,4.34,-0.21,3.85,-0.16758,-89.5062,183.183,981.44,1,274.006
1442400,-0.045384,-1.01748,-0.020496,4.34,-0.21,3.85,-0.16758,-89.5062,183.183,981.44,1,274.006
1442410,-0.045384,-1.01748,-0.020496,4.34,-0.21,3.85,-0.16758,-89.5062,183.183,981.44,1,274.006
1442420,-0.040992,-1.01528,-0.017568,4.34,0.07,3.64,-0.16968,-89.5062,183.193,981.48,1,273.665
1442430,-0.040992,-1.01528,-0.017568,4.34,0.07,3.64,-0.16968,-89.5062,183.193,981.48,1,273.665
1442440,-0.040992,-1.01528,-0.017568,4.34,0.07,3.64,-0.16968,-89.5062,183.193,981.48,1,273.665
1442450,-0.038796,-1.0065,-0.012444,4.2,0.14,3.85,-0.1701,-89.5062,183.193,981.51,1,273.411
1442460,-0.038796,-1.0065,-0.012444,4.2,0.14,3.85,-0.1701,-89.5062,183.193,981.51,1,273.411
1442470,-0.042456,-1.00577,-0.013908,4.62,0.07,3.85,-0.16324,-89.5062,183.193,981.44,1,274.025
1442480,-0.042456,-1.00577,-0.013908,4.62,0.07,3.85,-0.16324,-89.5062,183.193,981.44,1,274.025
1442490,-0.042456,-1.00577,-0.013908,4.62,0.07,3.85,-0.16324,-89.5062,183.193,981.44,1,274.025
1442500,-0.04026,-1.01382,-0.020496,4.41,-0.07,3.71,-0.16534,-89.5062,183.196,981.55,1,273.05
1442510,-0.04026,-1.01382,-0.020496,4.41,-0.07,3.71,-0.16534,-89.5062,183.196,981.55,1,273.05
1442520,-0.04758,-1.00796,-0.015372,4.06,0.49,3.92,-0.17262,-89.5062,183.196,981.49,1,273.558
1442530,-0.04758,-1.00796,-0.015372,4.06,0.49,3.92,-0.17262,-89.5062,183.196,981.49,1,273.558
1442540,-0.04758,-1.00796,-0.015372,4.06,0.49,3.92,-0.17262,-89.5062,183.196,981.49,1,273.558
1442550,-0.045384,-1.00796,-0.02562,4.13,0.35,4.06,-0.16772,-89.5062,183.196,981.53,1,273.226
1442560,-0.045384,-1.00796,-0.02562,4.13,0.35,4.06,-0.16772,-89.5062,183.196,981.53,1,273.226
1442570,-0.045384,-1.00796,-0.02562,4.13,0.35,4.06,-0.16772,-89.5062,183.196,981.53,1,273.226
1442580,-0.049776,-1.01236,-0.01464,4.83,0.21,3.64,-0.1722,-89.5062,183.196,981.52,1,273.286
1442590,-0.049776,-1.01236,-0.01464,4.83,0.21,3.64,-0.1722,-89.5062,183.196,981.52,1,273.286
1442600,-0.049776,-1.01236,-0.01464,4.83,0.21,3.64,-0.1722,-89.5062,183.196,981.52,1,273.286
1442610,-0.049776,-1.01236,-0.01464,4.83,0.21,3.64,-0.1722,-89.5062,183.196,981.52,1,273.286
1442620,-0.04392,-1.01162,-0.016836,4.69,0.28,4.41,-0.1687,-89.5062,183.196,981.44,1,273.987
1442630,-0.04392,-1.01162,-0.016836,4.69,0.28,4.41,-0.1687,-89.5062,183.196,981.44,1,273.987
1442640,-0.04392,-1.01162,-0.016836,4.69,0.28,4.41,-0.1687,-89.5062,183.196,981.44,1,273.987
1442650,-0.04392,-1.00577,-0.020496,4.34,0.07,3.85,-0.16576,-89.5062,183.196,981.45,1,273.891
1442660,-0.04392,-1.00577,-0.020496,4.34,0.07,3.85,-0.16576,-89.5062,183.196,981.45,1,273.891
1442670,-0.045384,-1.01675,-0.02196,4.27,0.56,4.34,-0.16576,-89.5062,183.196,981.37,1,274.602
1442680,-0.045384,-1.01675,-0.02196,4.27,0.56,4.34,-0.16576,-89.5062,183.196,981.37,1,274.602
1442690,-0.045384,-1.01675,-0.02196,4.27,0.56,4.34,-0.16576,-89.5062,183.196,981.37,1,274.602
1442700,-0.04392,-1.01162,-0.01464,3.99,0.91,3.99,-0.17122,-89.5062,183.18,981.44,1,273.987
1442710,-0.04392,-1.01162,-0.01464,3.99,0.91,3.99,-0.17122,-89.5062,183.18,981.44,1,273.987
1442720,-0.035868,-1.01821,-0.013176,4.41,0.28,4.06,-0.16632,-89.5062,183.18,981.35,1,274.787
1442730,-0.035868,-1.01821,-0.013176,4.41,0.28,4.06,-0.16632,-89.5062,183.18,981.35,1,274.787
1442740,-0.035868,-1.01821,-0.013176,4.41,0.28,4.06,-0.16632,-89.5062,183.18,981.35,1,274.787
1442750,-0.055632,-0.996252,-0.010248,4.13,0.56,3.92,-0.16464,-89.5062,183.18,981.4,1,274.32
1442760,-0.055632,-0.996252,-0.010248,4.13,0.56,3.92,-0.16464,-89.5062,183.18,981.4,1,274.32
1442770,-0.055632,-0.996252,-0.010248,4.13,0.56,3.92,-0.16464,-89.5062,183.18,981.4,1,274.32
1442780,-0.050508,-1.01602,-0.021228,4.34,0.84,3.92,-0.17024,-89.5062,183.18,981.6,1,272.575
1442790,-0.050508,-1.01602,-0.021228,4.34,0.84,3.92,-0.17024,-89.5062,183.18,981.6,1,272.575
1442800,-0.050508,-1.01602,-0.021228,4.34,0.84,3.92,-0.17024,-89.5062,183.18,981.6,1,272.575
1442810,-0.050508,-1.01602,-0.021228,4.34,0.84,3.92,-0.17024,-89.5062,183.18,981.6,1,272.575
1442820,-0.039528,-1.01089,-0.021228,4.34,0.42,3.85,-0.168,-89.5062,183.18,981.56,1,272.935
1442830,-0.039528,-1.01089,-0.021228,4.34,0.42,3.85,-0.168,-89.5062,183.18,981.56,1,272.935
1442840,-0.039528,-1.01089,-0.021228,4.34,0.42,3.85,-0.168,-89.5062,183.18,981.56,1,272.935
1442850,-0.038064,-1.01675,-0.020496,4.76,0.56,3.71,-0.17192,-89.5062,183.18,981.45,1,273.9
1442860,-0.038064,-1.01675,-0.020496,4.76,0.56,3.71,-0.17192,-89.5062,183.18,981.45,1,273.9
1442870,-0.035868,-1.01528,-0.021228,4.13,0.42,3.99,-0.16772,-89.5062,183.18,981.35,1,274.768
1442880,-0.035868,-1.01528,-0.021228,4.13,0.42,3.99,-0.16772,-89.5062,183.18,981.35,1,274.768
1442890,-0.035868,-1.01528,-0.021228,4.13,0.42,3.99,-0.16772,-89.5062,183.18,981.35,1,274.768
1442900,-0.037332,-1.02334,-0.051972,4.55,0.49,3.85,-0.16884,-89.5062,183.157,981.45,1,273.919
1442910,-0.037332,-1.02334,-0.051972,4.55,0.49,3.85,-0.16884,-89.5062,183.157,981.45,1,273.919
1442920,-0.038064,-1.01455,-0.022692,3.99,0.84,3.99,-0.1708,-89.5062,183.157,981.44,1,274.006
1442930,-0.038064,-1.01455,-0.022692,3.99,0.84,3.99,-0.1708,-89.5062,183.157,981.44,1,274.006
1442940,-0.038064,-1.01455,-0.022692,3.99,0.84,3.99,-0.1708,-89.5062,183.157,981.44,1,274.006
1442950,-0.0366,-1.01236,-0.016104,4.41,0.21,4.2,-0.17108,-89.5062,183.157,981.4,1,274.339
1442960,-0.0366,-1.01236,-0.016104,4.41,0.21,4.2,-0.17108,-89.5062,183.157,981.4,1,274.339
1442970,-0.0366,-1.01236,-0.016104,4.41,0.21,4.2,-0.17108,-89.5062,183.157,981.4,1,274.339
1442980,-0.041724,-1.01602,-0.022692,4.76,0.28,4.13,-0.1715,-89.5062,183.162,981.44,1,273.997
1442990,-0.041724,-1.01602,-0.022692,4.76,0.28,4.13,-0.1715,-89.5062,183.162,981.44,1,273.997
1443000,-0.035868,-1.01528,-0.016104,3.85,-0.28,4.06,-0.16968,-89.5062,183.162,981.41,1,274.26
1443010,-0.035868,-1.01528,-0.016104,3.85,-0.28,4.06,-0.16968,-89.5062,183.162,981.41,1,274.26
1443020,-0.035868,-1.01528,-0.016104,3.85,-0.28,4.06,-0.16968,-89.5062,183.162,981.41,1,274.26
1443030,-0.035136,-1.01968,-0.055632,4.06,-0.63,3.85,-0.17192,-89.5062,183.162,981.49,1,273.567
1443040,-0.035136,-1.01968,-0.055632,4.06,-0.63,3.85,-0.17192,-89.5062,183.162,981.49,1,273.567
1443050,-0.035868,-1.02626,-0.049044,4.48,-0.35,3.78,-0.16982,-89.5062,183.162,981.35,1,274.796
1443060,-0.035868,-1.02626,-0.049044,4.48,-0.35,3.78,-0.16982,-89.5062,183.153,981.35,1,274.796
1443070,-0.035868,-1.02626,-0.049044,4.48,-0.35,3.78,-0.16982,-89.5062,183.153,981.35,1,274.796
1443080,-0.043188,-1.00796,-0.016104,4.2,-0.14,3.92,-0.17122,-89.5062,183.153,981.37,1,274.62
1443090,-0.043188,-1.00796,-0.016104,4.2,-0.14,3.92,-0.17122,-89.5062,183.153,981.37,1,274.62
1443100,-0.043188,-1.00796,-0.016104,4.2,-0.14,3.92,-0.17122,-89.5062,183.153,981.37,1,274.62
1443110,-0.049044,-1.01309,-0.013176,5.04,0.28,4.13,-0.17332,-89.5062,183.153,981.38,1,274.532
1443120,-0.049044,-1.01309,-0.013176,5.04,0.28,4.13,-0.17332,-89.5062,183.153,981.38,1,274.532
1443130,-0.042456,-1.01309,-0.021228,4.69,0.28,4.06,-0.17024,-89.5062,183.153,981.41,1,274.26
1443140,-0.042456,-1.01309,-0.021228,4.69,0.28,4.06,-0.17024,-89.5062,183.153,981.41,1,274.26
1443150,-0.042456,-1.01309,-0.021228,4.69,0.28,4.06,-0.17024,-89.5062,183.153,981.41,1,274.26
1443160,-0.050508,-1.01382,-0.01464,4.69,0.49,3.99,-0.1694,-89.5062,183.146,981.33,1,274.972
1443170,-0.050508,-1.01382,-0.01464,4.69,0.49,3.99,-0.1694,-89.5062,183.146,981.33,1,274.972
1443180,-0.049776,-1.01455,-0.008784,4.34,0.07,4.06,-0.16618,-89.5062,183.146,981.43,1,274.093
1443190,-0.049776,-1.01455,-0.008784,4.34,0.07,4.06,-0.16618,-89.5062,183.146,981.43,1,274.093
1443200,-0.049776,-1.01455,-0.008784,4.34,0.07,4.06,-0.16618,-89.5062,183.146,981.43,1,274.093
1443210,-0.040992,-1.01089,-0.015372,3.99,-0.07,4.13,-0.17136,-89.5062,183.146,981.37,1,274.611
1443220,-0.040992,-1.01089,-0.015372,3.99,-0.07,4.13,-0.17136,-89.5062,183.146,981.37,1,274.611
1443230,-0.040992,-1.01089,-0.015372,3.99,-0.07,4.13,-0.17136,-89.5062,183.146,981.37,1,274.611
1443240,-0.038796,-1.00943,-0.02928,4.2,0.49,3.71,-0.16604,-89.5062,183.15,981.49,1,273.558
1443250,-0.038796,-1.00943,-0.02928,4.2,0.49,3.71,-0.16604,-89.5062,183.15,981.49,1,273.558
1443260,-0.043188,-1.01236,-0.013176,4.48,0.0,3.85,-0.1701,-89.5062,183.15,981.39,1,274.427
1443270,-0.043188,-1.01236,-0.013176,4.48,0.0,3.85,-0.1701,-89.5062,183.15,981.39,1,274.427
1443280,-0.043188,-1.01236,-0.013176,4.48,0.0,3.85,-0.1701,-89.5062,183.15,981.39,1,274.427
1443290,-0.057096,-1.01455,-0.033672,4.55,0.56,3.78,-0.17276,-89.5062,183.15,981.59,1,272.699
1443300,-0.057096,-1.01455,-0.033672,4.55,0.56,3.78,-0.17276,-89.5062,183.15,981.59,1,272.699
1443310,-0.042456,-1.0087,-0.010248,4.06,0.56,3.71,-0.16772,-89.5062,183.15,981.4,1,274.348
1443320,-0.042456,-1.0087,-0.010248,4.06,0.56,3.71,-0.16772,-89.5062,183.126,981.4,1,274.348
1443330,-0.042456,-1.0087,-0.010248,4.06,0.56,3.71,-0.16772,-89.5062,183.126,981.4,1,274.348
1443340,-0.046848,-1.01236,-0.017568,3.99,0.28,3.92,-0.1701,-89.5062,183.126,981.6,1,272.612
1443350,-0.046848,-1.01236,-0.017568,3.99,0.28,3.92,-0.1701,-89.5062,183.126,981.6,1,272.612
1443360,-0.046848,-1.01236,-0.017568,3.99,0.28,3.92,-0.1701,-89.5062,183.126,981.6,1,272.612
1443370,-0.04392,-1.01382,-0.020496,4.41,0.42,3.85,-0.16814,-89.5062,183.126,981.31,1,275.138
1443380,-0.04392,-1.01382,-0.020496,4.41,0.42,3.85,-0.16814,-89.5062,183.126,981.31,1,275.138
1443390,-0.043188,-1.01162,-0.016836,4.34,0.07,4.34,-0.16702,-89.5062,183.126,981.46,1,273.831
1443400,-0.043188,-1.01162,-0.016836,4.34,0.07,4.34,-0.16702,-89.5062,183.127,981.46,1,273.831
1443410,-0.043188,-1.01162,-0.016836,4.34,0.07,4.34,-0.16702,-89.5062,183.127,981.46,1,273.831
1443420,-0.0366,-1.01455,-0.016104,3.99,0.28,3.85,-0.16646,-89.5062,183.127,981.42,1,274.172
1443430,-0.0366,-1.01455,-0.016104,3.99,0.28,3.85,-0.16646,-89.5062,183.127,981.42,1,274.172
1443440,-0.0366,-1.01455,-0.016104,3.99,0.28,3.85,-0.16646,-89.5062,183.127,981.42,1,274.172
1443450,-0.038796,-1.01089,-0.0183,3.99,0.07,4.34,-0.17332,-89.5062,183.127,981.45,1,273.947
1443460,-0.038796,-1.01089,-0.0183,3.99,0.07,4.34,-0.17332,-89.5062,183.127,981.45,1,273.947
1443470,-0.0366,-1.01455,-0.00732,4.06,0.21,3.57,-0.168,-89.5062,183.127,981.41,1,274.269
1443480,-0.0366,-1.01455,-0.00732,4.06,0.21,3.57,-0.168,-89.5062,183.127,981.41,1,274.269
1443490,-0.0366,-1.01455,-0.00732,4.06,0.21,3.57,-0.168,-89.5062,183.127,981.41,1,274.269
1443500,-0.0366,-1.01089,-0.01098,4.97,0.42,4.13,-0.16912,-89.5062,183.116,981.45,1,273.919
1443510,-0.0366,-1.01089,-0.01098,4.97,0.42,4.13,-0.16912,-89.5062,183.116,981.45,1,273.919
1443520,-0.0366,-1.01089,-0.01098,4.97,0.42,4.13,-0.16912,-89.5062,183.116,981.45,1,273.919
1443530,-0.043188,-1.0065,-0.004392,3.99,0.21,3.78,-0.16576,-89.5062,183.116,981.41,1,274.269
1443540,-0.043188,-1.0065,-0.004392,3.99,0.21,3.78,-0.16576,-89.5062,183.116,981.41,1,274.269
1443550,-0.051972,-1.01089,-0.017568,4.27,0.14,3.99,-0.17192,-89.5062,183.116,981.47,1,273.743
1443560,-0.051972,-1.01089,-0.017568,4.27,0.14,3.99,-0.17192,-89.5062,183.116,981.47,1,273.743
1443570,-0.051972,-1.01089,-0.017568,4.27,0.14,3.99,-0.17192,-89.5062,183.116,981.47,1,273.743
1443580,-0.038064,-1.01602,-0.002928,4.13,0.07,3.78,-0.16618,-89.5062,183.116,981.46,1,273.821
1443590,-0.038064,-1.01602,-0.002928,4.13,0.07,3.78,-0.16618,-89.5062,183.116,981.46,1,273.821
1443600,-0.038064,-1.01602,-0.002928,4.13,0.07,3.78,-0.16618,-89.5062,183.116,981.46,1,273.821
1443610,-0.038796,-1.01162,-0.009516,4.2,-0.28,4.06,-0.16898,-89.5062,183.116,981.54,1,273.11
1443620,-0.038796,-1.01162,-0.009516,4.2,-0.28,4.06,-0.16898,-89.5062,183.116,981.54,1,273.11
1443630,-0.038796,-1.01162,-0.009516,4.2,-0.28,4.06,-0.16898,-89.5062,183.116,981.54,1,273.11
1443640,-0.038796,-1.01162,-0.009516,4.2,-0.28,4.06,-0.16898,-89.5062,183.116,981.54,1,273.11
1443650,-0.04392,-1.01089,-0.016104,4.13,-0.14,3.78,-0.168,-89.5062,183.116,981.37,1,274.592
1443660,-0.04392,-1.01089,-0.016104,4.13,-0.14,3.78,-0.168,-89.5062,183.116,981.37,1,274.592
1443670,-0.045384,-1.02187,-0.037332,4.27,-0.07,3.85,-0.16856,-89.5062,183.116,981.45,1,273.909
1443680,-0.045384,-1.02187,-0.037332,4.27,-0.07,3.85,-0.16856,-89.5062,183.116,981.45,1,273.909
1443690,-0.045384,-1.02187,-0.037332,4.27,-0.07,3.85,-0.16856,-89.5062,183.116,981.45,1,273.909
1443700,-0.027816,-1.00357,-0.026352,4.62,0.0,3.85,-0.1701,-89.5062,183.116,981.58,1,272.796
1443710,-0.027816,-1.00357,-0.026352,4.62,0.0,3.85,-0.1701,-89.5062,183.116,981.58,1,272.796
1443720,-0.027816,-1.00357,-0.026352,4.62,0.0,3.85,-0.1701,-89.5062,183.116,981.58,1,272.796
1443730,-0.031476,-1.01162,-0.008784,4.27,0.49,3.99,-0.17304,-89.5062,183.103,981.45,1,273.909
1443740,-0.031476,-1.01162,-0.008784,4.27,0.49,3.99,-0.17304,-89.5062,183.103,981.45,1,273.909
1443750,-0.030744,-1.01016,-0.02196,4.34,0.14,3.92,-0.16772,-89.5062,183.103,981.52,1,273.295
1443760,-0.030744,-1.01016,-0.02196,4.34,0.14,3.92,-0.16772,-89.5062,183.103,981.52,1,273.295
1443770,-0.030744,-1.01016,-0.02196,4.34,0.14,3.92,-0.16772,-89.5062,183.103,981.52,1,273.295
1443780,-0.04026,-1.01162,-0.011712,4.48,0.42,3.71,-0.17192,-89.5062,183.103,981.44,1,273.997
1443790,-0.04026,-1.01162,-0.011712,4.48,0.42,3.71,-0.17192,-89.5062,183.103,981.44,1,273.997
1443800,-0.045384,-1.01162,-0.020496,4.55,0.91,4.34,-0.17486,-89.5062,183.103,981.41,1,274.26
1443810,-0.045384,-1.01162,-0.020496,4.55,0.91,4.34,-0.17486,-89.5062,183.106,981.41,1,274.26
1443820,-0.045384,-1.01162,-0.020496,4.55,0.91,4.34,-0.17486,-89.5062,183.106,981.41,1,274.26
1443830,-0.04758,-1.0065,0.013908,4.06,0.49,3.92,-0.17164,-89.5062,183.106,981.34,1,274.865
1443840,-0.04758,-1.0065,0.013908,4.06,0.49,3.92,-0.17164,-89.5062,183.106,981.34,1,274.865
1443850,-0.04758,-1.0065,0.013908,4.06,0.49,3.92,-0.17164,-89.5062,183.106,981.34,1,274.865
1443860,-0.046848,-1.01309,-0.00366,4.48,0.56,3.78,-0.1729,-89.5062,183.106,981.42,1,274.191
1443870,-0.046848,-1.01309,-0.00366,4.48,0.56,3.78,-0.1729,-89.5062,183.106,981.42,1,274.191
1443880,-0.037332,-1.00577,-0.0183,4.41,0.42,3.78,-0.16926,-89.5062,183.106,981.52,1,273.277
1443890,-0.037332,-1.00577,-0.0183,4.41,0.42,3.78,-0.16926,-89.5062,183.106,981.52,1,273.277
1443900,-0.037332,-1.00577,-0.0183,4.41,0.42,3.78,-0.16926,-89.5062,183.106,981.52,1,273.277
1443910,-0.037332,-1.00577,-0.0183,4.41,0.42,3.78,-0.16926,-89.5062,183.106,981.52,1,273.277
1443920,-0.037332,-1.00577,-0.0183,4.41,0.42,3.78,-0.16926,-89.5062,183.106,981.52,1,273.277
1443930,-0.043188,-1.00943,-0.01464,4.69,0.35,3.85,-0.16576,-89.5062,183.106,981.33,1,274.934
1443940,-0.043188,-1.00943,-0.01464,4.69,0.35,3.85,-0.16576,-89.5062,183.106,981.33,1,274.934
1443950,-0.04026,-1.01528,-0.015372,4.27,0.07,3.92,-0.17388,-89.5062,183.106,981.46,1,273.803
1443960,-0.04026,-1.01528,-0.015372,4.27,0.07,3.92,-0.17388,-89.5062,183.106,981.46,1,273.803
1443970,-0.04026,-1.01528,-0.015372,4.27,0.07,3.92,-0.17388,-89.5062,183.106,981.46,1,273.803
1443980,-0.033672,-1.01382,-0.016836,4.55,0.0,3.85,-0.168,-89.5062,183.106,981.33,1,274.943
1443990,-0.033672,-1.01382,-0.016836,4.55,0.0,3.85,-0.168,-89.5062,183.106,981.33,1,274.943
1444000,-0.035868,-1.01309,-0.022692,4.13,0.35,3.92,-0.16954,-89.5062,183.077,981.49,1,273.549
1444010,-0.035868,-1.01309,-0.022692,4.13,0.35,3.92,-0.16954,-89.5062,183.077,981.49,1,273.549
1444020,-0.035868,-1.01309,-0.022692,4.13,0.35,3.92,-0.16954,-89.5062,183.077,981.49,1,273.549
1444030,-0.035868,-1.0087,-0.0183,4.34,0.07,3.99,-0.16646,-89.5062,183.077,981.31,1,275.119
1444040,-0.035868,-1.0087,-0.0183,4.34,0.07,3.99,-0.16646,-89.5062,183.077,981.31,1,275.119
1444050,-0.035868,-1.0087,-0.0183,4.34,0.07,3.99,-0.16646,-89.5062,183.077,981.31,1,275.119
1444060,-0.038064,-1.01675,-0.01098,4.55,0.07,3.99,-0.17094,-89.5062,183.077,981.42,1,274.154
1444070,-0.038064,-1.01675,-0.01098,4.55,0.07,3.99,-0.17094,-89.5062,183.077,981.42,1,274.154
1444080,-0.037332,-1.01016,-0.021228,3.99,0.49,3.92,-0.16702,-89.5062,183.077,981.43,1,274.056
1444090,-0.037332,-1.01016,-0.021228,3.99,0.49,3.92,-0.16702,-89.5062,183.077,981.43,1,274.056
1444100,-0.037332,-1.01016,-0.021228,3.99,0.49,3.92,-0.16702,-89.5062,183.077,981.43,1,274.056
1444110,-0.037332,-1.01016,-0.021228,3.99,0.49,3.92,-0.16702,-89.5062,183.077,981.43,1,274.056
1444120,-0.044652,-1.01382,-0.026352,4.13,0.35,3.85,-0.17318,-89.5062,183.077,981.48,1,273.646
1444130,-0.044652,-1.01382,-0.026352,4.13,0.35,3.85,-0.17318,-89.5062,183.077,981.48,1,273.646
1444140,-0.044652,-1.01382,-0.026352,4.13,0.35,3.85,-0.17318,-89.5062,183.077,981.48,1,273.646
1444150,-0.049044,-1.01016,-0.024888,4.2,0.0,3.99,-0.16716,-89.5062,183.077,981.37,1,274.574
1444160,-0.049044,-1.01016,-0.024888,4.2,0.0,3.99,-0.16716,-89.5062,183.077,981.37,1,274.574
1444170,-0.049044,-1.01016,-0.024888,4.2,0.0,3.99,-0.16716,-89.5062,183.077,981.37,1,274.574
1444180,-0.035868,-1.01528,-0.011712,4.48,0.14,3.78,-0.17038,-89.5062,183.077,981.49,1,273.549
1444190,-0.035868,-1.01528,-0.011712,4.48,0.14,3.78,-0.17038,-89.5062,183.077,981.49,1,273.549
1444200,-0.043188,-1.01602,-0.02196,4.41,0.56,3.78,-0.17024,-89.5062,183.065,981.36,1,274.671
1444210,-0.043188,-1.01602,-0.02196,4.41,0.56,3.78,-0.17024,-89.5062,183.065,981.36,1,274.671
1444220,-0.043188,-1.01602,-0.02196,4.41,0.56,3.78,-0.17024,-89.5062,183.065,981.36,1,274.671
1444230,-0.040992,-1.01236,-0.015372,4.34,0.28,3.92,-0.17094,-89.5062,183.065,981.38,1,274.504
1444240,-0.040992,-1.01236,-0.015372,4.34,0.28,3.92,-0.17094,-89.5062,183.065,981.38,1,274.504
1444250,-0.040992,-1.01236,-0.015372,4.34,0.28,3.92,-0.17094,-89.5062,183.065,981.38,1,274.504
1444260,-0.046848,-1.00796,-0.0183,3.99,0.28,3.64,-0.16884,-89.5062,183.065,981.47,1,273.696
1444270,-0.046848,-1.00796,-0.0183,3.99,0.28,3.64,-0.16884,-89.5062,183.065,981.47,1,273.696
1444280,-0.041724,-1.01162,-0.016104,4.27,0.0,3.78,-0.1687,-89.5062,183.065,981.44,1,273.969
1444290,-0.041724,-1.01162,-0.016104,4.27,0.0,3.78,-0.1687,-89.5062,183.065,981.44,1,273.969
1444300,-0.041724,-1.01162,-0.016104,4.27,0.0,3.78,-0.1687,-89.5062,183.065,981.44,1,273.969
1444310,-0.041724,-1.01162,-0.016104,4.27,0.0,3.78,-0.1687,-89.5062,183.065,981.44,1,273.969
1444320,-0.056364,-1.01236,-0.039528,4.48,0.21,3.99,-0.16856,-89.5062,183.065,981.45,1,273.891
1444330,-0.056364,-1.01236,-0.039528,4.48,0.21,3.99,-0.16856,-89.5062,183.065,981.45,1,273.891
1444340,-0.056364,-1.01236,-0.039528,4.48,0.21,3.99,-0.16856,-89.5062,183.065,981.45,1,273.891
1444350,-0.0366,-1.01236,-0.0183,4.55,-0.14,3.71,-0.16492,-89.5062,183.065,981.53,1,273.189
1444360,-0.0366,-1.01236,-0.0183,4.55,-0.14,3.71,-0.16492,-89.5062,183.065,981.53,1,273.189
1444370,-0.0366,-1.01236,-0.0183,4.55,-0.14,3.71,-0.16492,-89.5062,183.065,981.53,1,273.189
1444380,-0.048312,-1.01382,-0.006588,4.41,0.91,3.78,-0.16912,-89.5062,183.065,981.5,1,273.433
1444390,-0.048312,-1.01382,-0.006588,4.41,0.91,3.78,-0.16912,-89.5062,183.065,981.5,1,273.433
1444400,-0.035868,-1.0065,-0.030744,3.85,0.35,3.99,-0.16842,-89.5062,183.074,981.38,1,274.504
1444410,-0.035868,-1.0065,-0.030744,3.85,0.35,3.99,-0.16842,-89.5062,183.074,981.38,1,274.504
1444420,-0.035868,-1.0065,-0.030744,3.85,0.35,3.99,-0.16842,-89.5062,183.074,981.38,1,274.504
1444430,-0.039528,-1.01236,-0.012444,4.41,0.56,3.64,-0.17206,-89.5062,183.074,981.45,1,273.891
1444440,-0.039528,-1.01236,-0.012444,4.41,0.56,3.64,-0.17206,-89.5062,183.074,981.45,1,273.891
1444450,-0.033672,-1.01309,-0.016104,4.48,0.21,3.92,-0.16884,-89.5062,183.074,981.53,1,273.207
1444460,-0.033672,-1.01309,-0.016104,4.48,0.21,3.92,-0.16884,-89.5062,183.074,981.53,1,273.207
1444470,-0.033672,-1.01309,-0.016104,4.48,0.21,3.92,-0.16884,-89.5062,183.074,981.53,1,273.207
1444480,-0.051972,-1.01675,-0.043188,4.62,0.49,3.92,-0.16618,-89.5062,183.074,981.48,1,273.618
1444490,-0.051972,-1.01675,-0.043188,4.62,0.49,3.92,-0.16618,-89.5062,183.074,981.48,1,273.618
1444500,-0.051972,-1.01675,-0.043188,4.62,0.49,3.92,-0.16618,-89.5062,183.074,981.48,1,273.618
1444510,-0.051972,-1.01675,-0.043188,4.62,0.49,3.92,-0.16618,-89.5062,183.074,981.48,1,273.618
1444520,-0.046848,-1.00284,-0.023424,3.92,0.14,3.99,-0.16702,-89.5062,183.074,981.39,1,274.408
1444530,-0.046848,-1.00284,-0.023424,3.92,0.14,3.99,-0.16702,-89.5062,183.074,981.39,1,274.408
1444540,-0.046848,-1.00284,-0.023424,3.92,0.14,3.99,-0.16702,-89.5062,183.074,981.39,1,274.408
1444550,-0.037332,-1.01748,-0.013176,4.48,0.42,3.85,-0.16604,-89.5062,183.074,981.47,1,273.715
1444560,-0.037332,-1.01748,-0.013176,4.48,0.42,3.85,-0.16604,-89.5062,183.074,981.47,1,273.715
1444570,-0.044652,-1.00943,-0.019032,4.06,0.42,3.99,-0.1694,-89.5062,183.074,981.34,1,274.874
1444580,-0.044652,-1.00943,-0.019032,4.06,0.42,3.99,-0.1694,-89.5062,183.074,981.34,1,274.874
1444590,-0.044652,-1.00943,-0.019032,4.06,0.42,3.99,-0.1694,-89.5062,183.074,981.34,1,274.874
1444600,-0.040992,-1.0043,-0.010248,4.48,0.84,3.64,-0.1687,-89.5062,183.059,981.38,1,274.495
1444610,-0.040992,-1.0043,-0.010248,4.48,0.84,3.64,-0.1687,-89.5062,183.059,981.38,1,274.495
1444620,-0.040992,-1.0043,-0.010248,4.48,0.84,3.64,-0.1687,-89.5062,183.059,981.38,1,274.495
1444630,-0.054168,-0.992592,-0.01098,4.13,0.28,3.92,-0.16912,-89.5062,183.059,981.41,1,274.241
1444640,-0.054168,-0.992592,-0.01098,4.13,0.28,3.92,-0.16912,-89.5062,183.059,981.41,1,274.241
1444650,-0.044652,-1.01602,-0.023424,4.27,0.07,3.99,-0.16772,-89.5062,183.059,981.47,1,273.743
1444660,-0.044652,-1.01602,-0.023424,4.27,0.07,3.99,-0.16772,-89.5062,183.059,981.47,1,273.743
1444670,-0.044652,-1.01602,-0.023424,4.27,0.07,3.99,-0.16772,-89.5062,183.059,981.47,1,273.743
1444680,-0.04758,-1.01236,-0.020496,4.41,-0.56,3.99,-0.16562,-89.5062,183.059,981.43,1,274.056
1444690,-0.04758,-1.01236,-0.020496,4.41,-0.56,3.99,-0.16562,-89.5062,183.059,981.43,1,274.056
1444700,-0.04758,-1.01236,-0.020496,4.41,-0.56,3.99,-0.16562,-89.5062,183.059,981.43,1,274.056
1444710,-0.04758,-1.01236,-0.020496,4.41,-0.56,3.99,-0.16562,-89.5062,183.059,981.43,1,274.056
1444720,-0.035868,-1.01528,-0.026352,4.41,0.0,4.27,-0.1666,-89.5062,183.059,981.45,1,273.891
1444730,-0.035868,-1.01528,-0.026352,4.41,0.0,4.27,-0.1666,-89.5062,183.059,981.45,1,273.891
1444740,-0.035868,-1.01528,-0.026352,4.41,0.0,4.27,-0.1666,-89.5062,183.059,981.45,1,273.891
1444750,-0.040992,-1.01748,-0.019764,4.76,0.0,3.92,-0.16828,-89.5062,183.059,981.29,1,275.276
1444760,-0.040992,-1.01748,-0.019764,4.76,0.0,3.92,-0.16828,-89.5062,183.059,981.29,1,275.276
1444770,-0.048312,-1.01382,-0.00732,4.27,0.21,3.64,-0.16408,-89.5062,183.059,981.35,1,274.777
1444780,-0.048312,-1.01382,-0.00732,4.27,0.21,3.64,-0.16408,-89.5062,183.059,981.35,1,274.777
1444790,-0.048312,-1.01382,-0.00732,4.27,0.21,3.64,-0.16408,-89.5062,183.059,981.35,1,274.777
1444800,-0.041724,-1.00943,-0.016104,4.34,0.21,3.92,-0.17248,-89.5062,183.03,981.4,1,274.329
1444810,-0.041724,-1.00943,-0.016104,4.34,0.21,3.92,-0.17248,-89.5062,183.03,981.4,1,274.329
1444820,-0.041724,-1.00943,-0.016104,4.34,0.21,3.92,-0.17248,-89.5062,183.03,981.4,1,274.329
1444830,-0.043188,-1.01382,-0.02196,3.99,0.0,4.13,-0.17178,-89.5062,183.03,981.45,1,273.872
1444840,-0.043188,-1.01382,-0.02196,3.99,0.0,4.13,-0.17178,-89.5062,183.03,981.45,1,273.872
1444850,-0.046848,-1.01236,-0.022692,4.13,-0.28,3.99,-0.17108,-89.5062,183.03,981.44,1,273.997
1444860,-0.046848,-1.01236,-0.022692,4.13,-0.28,3.99,-0.17108,-89.5062,183.03,981.44,1,273.997
1444870,-0.046848,-1.01236,-0.022692,4.13,-0.28,3.99,-0.17108,-89.5062,183.03,981.44,1,273.997
1444880,-0.035136,-1.02114,-0.013176,4.55,0.28,4.06,-0.17052,-89.5062,183.03,981.47,1,273.706
1444890,-0.035136,-1.02114,-0.013176,4.55,0.28,4.06,-0.17052,-89.5062,183.03,981.47,1,273.706
1444900,-0.035136,-1.02114,-0.013176,4.55,0.28,4.06,-0.17052,-89.5062,183.03,981.47,1,273.706
1444910,-0.035136,-1.02114,-0.013176,4.55,0.28,4.06,-0.17052,-89.5062,183.03,981.47,1,273.706
1444920,-0.049044,-1.01089,-0.023424,4.34,0.49,4.06,-0.16828,-89.5062,183.03,981.53,1,273.17
1444930,-0.049044,-1.01089,-0.023424,4.34,0.49,4.06,-0.16828,-89.5062,183.03,981.53,1,273.17
1444940,-0.049044,-1.01089,-0.023424,4.34,0.49,4.06,-0.16828,-89.5062,183.03,981.53,1,273.17
1444950,-0.031476,-1.01455,-0.019032,4.34,-0.14,3.99,-0.17164,-89.5062,183.03,981.31,1,275.091
1444960,-0.031476,-1.01455,-0.019032,4.34,-0.14,3.99,-0.17164,-89.5062,183.03,981.31,1,275.091
1444970,-0.044652,-1.02114,-0.02196,4.13,-0.56,3.85,-0.168,-89.5062,183.03,981.49,1,273.549
1444980,-0.044652,-1.02114,-0.02196,4.13,-0.56,3.85,-0.168,-89.5062,183.03,981.49,1,273.549
1444990,-0.044652,-1.02114,-0.02196,4.13,-0.56,3.85,-0.168,-89.5062,183.03,981.49,1,273.549
1445000,-0.045384,-1.00357,-0.024888,4.27,-0.42,3.85,-0.16898,-89.5062,183.028,981.45,1,273.9
1445010,-0.045384,-1.00357,-0.024888,4.27,-0.42,3.85,-0.16898,-89.5062,183.028,981.45,1,273.9
1445020,-0.050508,-1.02187,-0.019032,4.41,-0.35,3.78,-0.1694,-89.5062,183.028,981.48,1,273.627
1445030,-0.050508,-1.02187,-0.019032,4.41,-0.35,3.78,-0.1694,-89.5062,183.028,981.48,1,273.627
1445040,-0.050508,-1.02187,-0.019032,4.41,-0.35,3.78,-0.1694,-89.5062,183.028,981.48,1,273.627
1445050,-0.037332,-1.01382,-0.019764,4.62,0.21,3.92,-0.168,-89.5062,183.028,981.46,1,273.803
1445060,-0.037332,-1.01382,-0.019764,4.62,0.21,3.92,-0.168,-89.5062,183.028,981.46,1,273.803
1445070,-0.037332,-1.01382,-0.019764,4.62,0.21,3.92,-0.168,-89.5062,183.028,981.46,1,273.803
1445080,-0.04026,-1.01162,-0.019764,4.13,-0.56,4.13,-0.17108,-89.5062,183.028,981.46,1,273.793
1445090,-0.04026,-1.01162,-0.019764,4.13,-0.56,4.13,-0.17108,-89.5062,183.028,981.46,1,273.793
1445100,-0.04026,-1.01162,-0.019764,4.13,-0.56,4.13,-0.17108,-89.5062,183.028,981.46,1,273.793
1445110,-0.04026,-1.01162,-0.019764,4.13,-0.56,4.13,-0.17108,-89.5062,183.028,981.46,1,273.793
1445120,-0.044652,-1.01236,-0.030012,3.92,0.14,3.92,-0.1715,-89.5062,183.028,981.5,1,273.442
1445130,-0.044652,-1.01236,-0.030012,3.92,0.14,3.92,-0.1715,-89.5062,183.028,981.5,1,273.442
1445140,-0.044652,-1.01236,-0.030012,3.92,0.14,3.92,-0.1715,-89.5062,183.028,981.5,1,273.442
1445150,-0.04758,-1.01602,-0.016836,4.62,0.28,3.71,-0.16982,-89.5062,183.028,981.34,1,274.828
1445160,-0.04758,-1.01602,-0.016836,4.62,0.28,3.71,-0.16982,-89.5062,183.028,981.34,1,274.828
1445170,-0.038064,-1.01162,-0.019032,4.48,0.21,3.99,-0.16828,-89.5062,183.028,981.51,1,273.355
1445180,-0.038064,-1.01162,-0.019032,4.48,0.21,3.99,-0.16828,-89.5062,183.028,981.51,1,273.355
1445190,-0.038064,-1.01162,-0.019032,4.48,0.21,3.99,-0.16828,-89.5062,183.028,981.51,1,273.355
1445200,-0.057096,-1.00943,-0.005856,4.2,0.21,3.92,-0.16842,-89.5062,183.041,981.48,1,273.637
1445210,-0.057096,-1.00943,-0.005856,4.2,0.21,3.92,-0.16842,-89.5062,183.041,981.48,1,273.637
1445220,-0.038064,-1.01382,-0.010248,4.34,0.63,3.71,-0.16534,-89.5062,183.041,981.38,1,274.495
1445230,-0.038064,-1.01382,-0.010248,4.34,0.63,3.71,-0.16534,-89.5062,183.041,981.38,1,274.495
1445240,-0.038064,-1.01382,-0.010248,4.34,0.63,3.71,-0.16534,-89.5062,183.041,981.38,1,274.495
1445250,-0.040992,-1.01455,-0.016836,3.71,0.42,3.92,-0.16968,-89.5062,183.041,981.34,1,274.865
1445260,-0.040992,-1.01455,-0.016836,3.71,0.42,3.92,-0.16968,-89.5062,183.041,981.34,1,274.865
1445270,-0.040992,-1.01455,-0.016836,3.71,0.42,3.92,-0.16968,-89.5062,183.041,981.34,1,274.865
1445280,-0.046116,-1.01748,-0.05856,4.41,-0.21,3.78,-0.16702,-89.5062,183.022,981.56,1,272.935
1445290,-0.046116,-1.01748,-0.05856,4.41,-0.21,3.78,-0.16702,-89.5062,183.022,981.56,1,272.935
1445300,-0.04392,-1.01748,-0.013176,4.2,0.49,4.06,-0.17024,-89.5062,183.022,981.47,1,273.724
1445310,-0.04392,-1.01748,-0.013176,4.2,0.49,4.06,-0.17024,-89.5062,183.022,981.47,1,273.724
1445320,-0.04392,-1.01748,-0.013176,4.2,0.49,4.06,-0.17024,-89.5062,183.022,981.47,1,273.724
1445330,-0.041724,-1.01602,-0.027084,4.2,0.07,4.27,-0.16744,-89.5062,183.022,981.47,1,273.724
1445340,-0.041724,-1.01602,-0.027084,4.2,0.07,4.27,-0.16744,-89.5062,183.022,981.47,1,273.724
1445350,-0.0366,-1.01016,-0.0183,4.2,0.28,3.78,-0.16674,-89.5062,183.022,981.47,1,273.733
1445360,-0.0366,-1.01016,-0.0183,4.2,0.28,3.78,-0.16674,-89.5062,183.014,981.47,1,273.733
1445370,-0.0366,-1.01016,-0.0183,4.2,0.28,3.78,-0.16674,-89.5062,183.014,981.47,1,273.733
1445380,-0.0366,-1.01968,-0.019032,4.13,0.63,3.78,-0.16352,-89.5062,183.014,981.41,1,274.251
1445390,-0.0366,-1.01968,-0.019032,4.13,0.63,3.78,-0.16352,-89.5062,183.014,981.41,1,274.251
1445400,-0.0366,-1.01968,-0.019032,4.13,0.63,3.78,-0.16352,-89.5062,183.014,981.41,1,274.251
1445410,-0.035136,-1.01675,0.001464,3.99,0.21,4.13,-0.17276,-89.5062,183.014,981.43,1,274.084
1445420,-0.035136,-1.01675,0.001464,3.99,0.21,4.13,-0.17276,-89.5062,183.014,981.43,1,274.084
1445430,-0.061488,-1.00577,-0.005856,3.85,-0.07,3.92,-0.17038,-89.5062,183.014,981.45,1,273.909
1445440,-0.061488,-1.00577,-0.005856,3.85,-0.07,3.92,-0.17038,-89.5062,183.014,981.45,1,273.909
1445450,-0.061488,-1.00577,-0.005856,3.85,-0.07,3.92,-0.17038,-89.5062,183.014,981.45,1,273.909
1445460,-0.04392,-1.01382,-0.019032,3.71,0.14,3.57,-0.16926,-89.5062,183.008,981.46,1,273.821
1445470,-0.04392,-1.01382,-0.019032,3.71,0.14,3.57,-0.16926,-89.5062,183.008,981.46,1,273.821
1445480,-0.051972,-1.01382,-0.02196,4.34,-0.21,4.27,-0.16282,-89.5062,183.008,981.57,1,272.875
1445490,-0.051972,-1.01382,-0.02196,4.34,-0.21,4.27,-0.16282,-89.5062,183.008,981.57,1,272.875
1445500,-0.051972,-1.01382,-0.02196,4.34,-0.21,4.27,-0.16282,-89.5062,183.008,981.57,1,272.875
1445510,-0.039528,-1.01162,-0.016836,4.13,0.21,4.2,-0.16814,-89.5062,183.008,981.41,1,274.241
1445520,-0.039528,-1.01162,-0.016836,4.13,0.21,4.2,-0.16814,-89.5062,183.008,981.41,1,274.241
1445530,-0.039528,-1.01162,-0.016836,4.13,0.21,4.2,-0.16814,-89.5062,183.008,981.41,1,274.241
1445540,-0.038796,-1.00943,-0.006588,4.13,0.42,3.85,-0.1659,-89.5062,183.004,981.41,1,274.26
1445550,-0.038796,-1.00943,-0.006588,4.13,0.42,3.85,-0.1659,-89.5062,183.004,981.41,1,274.26
1445560,-0.05124,-1.00796,-0.016836,4.62,-0.28,3.85,-0.1673,-89.5062,183.004,981.51,1,273.383
1445570,-0.05124,-1.00796,-0.016836,4.62,-0.28,3.85,-0.1673,-89.5062,183.004,981.51,1,273.383
1445580,-0.05124,-1.00796,-0.016836,4.62,-0.28,3.85,-0.1673,-89.5062,183.004,981.51,1,273.383
1445590,-0.049044,-1.0065,-0.006588,4.41,0.28,3.85,-0.16996,-89.5062,183.004,981.46,1,273.831
1445600,-0.049044,-1.0065,-0.006588,4.41,0.28,3.85,-0.16996,-89.5062,183.004,981.46,1,273.831
1445610,-0.049044,-1.0065,-0.006588,4.41,0.28,3.85,-0.16996,-89.5062,183.004,981.46,1,273.831
1445620,-0.037332,-1.01016,-0.00366,4.2,0.21,3.64,-0.16632,-89.5062,183.01,981.41,1,274.269
1445630,-0.037332,-1.01016,-0.00366,4.2,0.21,3.64,-0.16632,-89.5062,183.01,981.41,1,274.269
1445640,-0.03294,-0.991128,-0.008052,4.27,-0.28,4.2,-0.1708,-89.5062,183.01,981.57,1,272.875
1445650,-0.03294,-0.991128,-0.008052,4.27,-0.28,4.2,-0.1708,-89.5062,183.01,981.57,1,272.875
1445660,-0.03294,-0.991128,-0.008052,4.27,-0.28,4.2,-0.1708,-89.5062,183.01,981.57,1,272.875
1445670,-0.03294,-1.01236,-0.013908,4.62,-0.21,3.78,-0.1708,-89.5062,183.01,981.46,1,273.831
1445680,-0.03294,-1.01236,-0.013908,4.62,-0.21,3.78,-0.1708,-89.5062,183.01,981.46,1,273.831
1445690,-0.049044,-1.02334,-0.010248,4.48,-0.42,3.85,-0.16716,-89.5062,183.01,981.48,1,273.665
1445700,-0.049044,-1.02334,-0.010248,4.48,-0.42,3.85,-0.16716,-89.5062,182.994,981.48,1,273.665
1445710,-0.049044,-1.02334,-0.010248,4.48,-0.42,3.85,-0.16716,-89.5062,182.994,981.48,1,273.665
1445720,-0.034404,-1.0087,-0.033672,3.92,0.07,3.99,-0.17374,-89.5062,182.994,981.49,1,273.558
1445730,-0.034404,-1.0087,-0.033672,3.92,0.07,3.99,-0.17374,-89.5062,182.994,981.49,1,273.558
1445740,-0.034404,-1.0087,-0.033672,3.92,0.07,3.99,-0.17374,-89.5062,182.994,981.49,1,273.558
1445750,-0.043188,-1.0087,-0.00732,4.2,0.21,3.78,-0.16772,-89.5062,182.994,981.43,1,274.084
1445760,-0.043188,-1.0087,-0.00732,4.2,0.21,3.78,-0.16772,-89.5062,182.994,981.43,1,274.084
1445770,-0.038064,-1.0087,-0.019032,4.2,-0.56,3.85,-0.17262,-89.5062,182.994,981.48,1,273.665
1445780,-0.038064,-1.0087,-0.019032,4.2,-0.56,3.85,-0.17262,-89.5062,182.994,981.48,1,273.665
1445790,-0.038064,-1.0087,-0.019032,4.2,-0.56,3.85,-0.17262,-89.5062,182.994,981.48,1,273.665
1445800,-0.046848,-1.02334,-0.022692,4.2,-0.14,3.85,-0.16954,-89.5062,183.03,981.52,1,273.295
1445810,-0.046848,-1.02334,-0.022692,4.2,-0.14,3.85,-0.16954,-89.5062,183.03,981.52,1,273.295
1445820,-0.046848,-1.02334,-0.022692,4.2,-0.14,3.85,-0.16954,-89.5062,183.03,981.52,1,273.295
1445830,0.679296,-19.7677,-4.68846,-4.69,7.84,22.89,-0.16394,-89.5062,183.03,981.44,2,273.987
1445840,0.679296,-19.7677,-4.68846,-4.69,7.84,22.89,-0.16394,-89.5062,183.03,981.44,2,273.987
1445850,0.549732,-23.9832,0.58194,23.24,-12.46,21.56,-0.23898,-89.5062,183.03,979.45,2,291.474
1445860,0.549732,-23.9832,0.58194,23.24,-12.46,21.56,-0.23898,-89.5062,183.03,979.45,2,291.474
1445870,0.549732,-23.9832,0.58194,23.24,-12.46,21.56,-0.23898,-89.5062,183.03,979.45,2,291.474
1445880,-1.37909,-20.8195,-1.68872,17.15,4.13,9.59,-0.22806,-89.5062,183.03,980.36,2,283.468
1445890,-1.37909,-20.8195,-1.68872,17.15,4.13,9.59,-0.22806,-89.5062,183.03,980.36,2,283.468
1445900,-1.37909,-20.8195,-1.68872,17.15,4.13,9.59,-0.22806,-89.5062,183.03,980.36,2,283.468
1445910,3.87521,-23.9832,3.98208,0.84,-34.09,-10.99,-0.2205,-89.5062,183.03,980.92,2,278.542
1445920,3.87521,-23.9832,3.98208,0.84,-34.09,-10.99,-0.2205,-89.5062,183.03,980.92,2,278.542
1445930,3.87521,-23.9832,3.98208,0.84,-34.09,-10.99,-0.2205,-89.5062,183.03,980.92,2,278.542
1445940,3.87521,-23.9832,3.98208,0.84,-34.09,-10.99,-0.2205,-89.5062,183.03,980.92,2,278.542
1445950,-0.86742,-23.9832,-1.60088,2.87,-124.53,13.02,-0.21616,-89.5062,183.03,980.62,2,281.175
1445960,-0.86742,-23.9832,-1.60088,2.87,-124.53,13.02,-0.21616,-89.5062,183.03,980.62,2,281.175
1445970,2.12134,-23.9832,-8.6581,-3.22,-122.15,14.14,-0.19922,-89.5062,183.03,981.19,2,276.172
1445980,2.12134,-23.9832,-8.6581,-3.22,-122.15,14.14,-0.19922,-89.5062,183.03,981.19,2,276.172
1445990,2.12134,-23.9832,-8.6581,-3.22,-122.15,14.14,-0.19922,-89.5062,183.03,981.19,2,276.172
1446000,-0.00366,-23.9832,1.16242,-3.57,-89.39,13.23,-0.19012,-89.5062,183.03,981.48,2,273.637
1446010,-0.00366,-23.9832,1.16242,-3.57,-89.39,13.23,-0.19012,-89.5062,183.03,981.48,2,273.637
1446020,-0.00366,-23.9832,1.16242,-3.57,-89.39,13.23,-0.19012,-89.5062,183.03,981.48,2,273.637
1446030,0.90036,-23.9832,0.461892,1.19,-102.9,11.48,-0.1876,-89.5062,183.044,981.48,2,273.627
1446040,0.90036,-23.9832,0.461892,1.19,-102.9,11.48,-0.1876,-89.5062,183.044,981.48,2,273.627
1446050,3.4587,-23.9832,2.18575,0.98,28.49,15.47,-0.18256,-89.5062,183.044,980.28,2,284.161
1446060,3.4587,-23.9832,2.18575,0.98,28.49,15.47,-0.18256,-89.5062,183.044,980.28,2,284.161
1446070,3.4587,-23.9832,2.18575,0.98,28.49,15.47,-0.18256,-89.5062,183.044,980.28,2,284.161
1446080,-1.22464,-23.9832,-1.50646,-10.36,4.2,32.27,-0.18326,-89.5062,183.044,981.12,2,276.786
1446090,-1.22464,-23.9832,-1.50646,-10.36,4.2,32.27,-0.18326,-89.5062,183.044,981.12,2,276.786
1446100,-0.952332,-23.9832,1.34102,-0.14,3.08,27.58,-0.17332,-89.5062,183.044,980.88,2,278.911
1446110,-0.952332,-23.9832,1.34102,-0.14,3.08,27.58,-0.17332,-89.5062,183.03,980.88,2,278.911
1446120,-0.952332,-23.9832,1.34102,-0.14,3.08,27.58,-0.17332,-89.5062,183.03,980.88,2,278.911
1446130,-0.408456,-23.9832,-0.6222,0.84,11.34,28.56,-0.17136,-89.5062,183.03,980.57,3,281.614
1446140,-0.408456,-23.9832,-0.6222,0.84,11.34,28.56,-0.17136,-89.5062,183.03,980.57,3,281.614
1446150,-0.408456,-23.9832,-0.6222,0.84,11.34,28.56,-0.17136,-89.5062,183.03,980.57,3,281.614
1446160,-0.497028,-23.9832,0.669048,1.75,4.41,30.94,-0.1673,-89.5062,183.03,980.19,3,284.961
1446170,-0.497028,-23.9832,0.669048,1.75,4.41,30.94,-0.1673,-89.5062,183.03,980.19,3,284.961
1446180,-0.619272,-23.9832,0.065148,-2.03,7.63,30.59,-0.16114,-89.5062,183.03,980.19,3,284.942
1446190,-0.619272,-23.9832,0.065148,-2.03,7.63,30.59,-0.16114,-89.5062,183.03,980.19,3,284.942
1446200,-0.619272,-23.9832,0.065148,-2.03,7.63,30.59,-0.16114,-89.5062,183.03,980.19,3,284.942
1446210,-0.619272,-23.9832,0.065148,-2.03,7.63,30.59,-0.16114,-89.5062,183.03,980.19,3,284.942
1446220,-0.619272,-23.9832,0.065148,-2.03,7.63,30.59,-0.16114,-89.5062,183.03,980.19,3,284.942
1446230,-0.215208,-23.9832,-0.538752,2.52,9.59,28.0,-0.1512,-89.5062,183.03,980.54,3,281.868
1446240,-0.215208,-23.9832,-0.538752,2.52,9.59,28.0,-0.1512,-89.5062,183.03,980.54,3,281.868
1446250,-0.240828,-23.9832,-0.579012,4.27,8.05,25.69,-0.14756,-89.5062,183.03,980.4,3,283.107
1446260,-0.240828,-23.9832,-0.579012,4.27,8.05,25.69,-0.14756,-89.5062,183.03,980.4,3,283.107
1446270,-0.240828,-23.9832,-0.579012,4.27,8.05,25.69,-0.14756,-89.5062,183.03,980.4,3,283.107
1446280,-0.730536,-23.9832,-0.502152,3.57,5.53,25.55,-0.1435,-89.5062,183.03,980.19,3,284.932
1446290,-0.730536,-23.9832,-0.502152,3.57,5.53,25.55,-0.1435,-89.5062,183.03,980.19,3,284.932
1446300,-0.879864,-23.9832,-0.24156,6.44,9.8,22.68,-0.14196,-89.5062,183.0,980.14,3,285.401
1446310,-0.879864,-23.9832,-0.24156,6.44,9.8,22.68,-0.14196,-89.5062,183.0,980.14,3,285.401
1446320,-0.879864,-23.9832,-0.24156,6.44,9.8,22.68,-0.14196,-89.5062,183.0,980.14,3,285.401
1446330,-1.03066,-23.9832,-0.2745,5.53,7.84,15.47,-0.13958,-89.5062,183.0,980.02,3,286.445
1446340,-1.03066,-23.9832,-0.2745,5.53,7.84,15.47,-0.13958,-89.5062,183.0,980.02,3,286.445
1446350,-1.03066,-23.9832,-0.2745,5.53,7.84,15.47,-0.13958,-89.5062,183.0,980.02,3,286.445
1446360,-1.30223,-23.9832,-0.48678,4.34,8.96,11.69,-0.13328,-89.5062,183.0,980.41,3,283.019
1446370,-1.30223,-23.9832,-0.48678,4.34,8.96,11.69,-0.13328,-89.5062,183.0,980.41,3,283.019
1446380,-0.887184,-23.9832,0.013908,3.78,13.16,4.76,-0.13342,-89.5062,183.003,980.25,3,284.434
1446390,-0.887184,-23.9832,0.013908,3.78,13.16,4.76,-0.13342,-89.5062,183.003,980.25,3,284.434
1446400,-0.887184,-23.9832,0.013908,3.78,13.16,4.76,-0.13342,-89.5062,183.003,980.25,3,284.434
1446410,-0.887184,-23.9832,0.013908,3.78,13.16,4.76,-0.13342,-89.5062,183.003,980.25,3,284.434
1446420,-1.51817,-23.9832,-0.34404,6.02,13.37,-2.8,-0.13412,-89.5062,183.003,980.34,3,283.644
1446430,-1.51817,-23.9832,-0.34404,6.02,13.37,-2.8,-0.13412,-89.5062,183.003,980.34,3,283.644
1446440,-1.22683,-23.9832,-0.521916,4.27,24.92,-8.89,-0.13762,-89.5062,183.003,980.45,3,282.659
1446450,-1.22683,-23.9832,-0.521916,4.27,24.92,-8.89,-0.13762,-89.5062,183.003,980.45,3,282.659
1446460,-1.22683,-23.9832,-0.521916,4.27,24.92,-8.89,-0.13762,-89.5062,183.003,980.45,3,282.659
1446470,-0.811056,-23.9832,-0.42822,2.8,28.84,-13.44,-0.13888,-89.5062,183.003,980.86,3,279.068
1446480,-0.811056,-23.9832,-0.42822,2.8,28.84,-13.44,-0.13888,-89.5062,183.003,980.86,3,279.068
1446490,-0.588528,-23.9832,-0.35502,0.0,29.4,-18.9,-0.15428,-89.5062,182.972,980.68,3,280.648
1446500,-0.588528,-23.9832,-0.35502,0.0,29.4,-18.9,-0.15428,-89.5062,182.972,980.68,3,280.648
1446510,-0.588528,-23.9832,-0.35502,0.0,29.4,-18.9,-0.15428,-89.5062,182.972,980.68,3,280.648
1446520,-0.726144,-23.9832,-0.712236,0.42,25.69,-22.47,-0.15442,-89.5062,182.972,980.84,3,279.253
1446530,-0.726144,-23.9832,-0.712236,0.42,25.69,-22.47,-0.15442,-89.5062,182.972,980.84,3,279.253
1446540,-0.726144,-23.9832,-0.712236,0.42,25.69,-22.47,-0.15442,-89.5062,182.972,980.84,3,279.253
1446550,-0.262056,-23.9832,-0.904752,0.56,28.0,-25.69,-0.16254,-89.5062,182.972,980.92,3,278.523
1446560,-0.262056,-23.9832,-0.904752,0.56,28.0,-25.69,-0.16254,-89.5062,182.972,980.92,3,278.523
1446570,-0.262056,-23.9832,-0.904752,0.56,28.0,-25.69,-0.16254,-89.5062,182.972,980.92,3,278.523
1446580,-0.305976,-23.9832,-0.404796,2.52,27.86,-24.01,-0.1722,-89.5062,182.972,980.84,3,279.253
1446590,-0.305976,-23.9832,-0.404796,2.52,27.86,-24.01,-0.1722,-89.5062,182.972,980.84,3,279.253
1446600,0.295728,-23.9832,-0.546804,3.99,30.73,-21.7,-0.18802,-89.5062,182.972,981.41,3,274.214
1446610,0.295728,-23.9832,-0.546804,3.99,30.73,-21.7,-0.18802,-89.5062,182.972,981.41,3,274.214
1446620,0.295728,-23.9832,-0.546804,3.99,30.73,-21.7,-0.18802,-89.5062,182.972,981.41,3,274.214
1446630,0.295728,-23.9832,-0.546804,3.99,30.73,-21.7,-0.18802,-89.5062,182.972,981.41,3,274.214
1446640,0.2013,-23.9832,-0.499956,-1.4,32.13,-14.7,-0.18886,-89.5062,182.972,981.87,3,270.197
1446650,0.2013,-23.9832,-0.499956,-1.4,32.13,-14.7,-0.18886,-89.5062,182.972,981.87,3,270.197
1446660,0.2013,-23.9832,-0.499956,-1.4,32.13,-14.7,-0.18886,-89.5062,182.972,981.87,3,270.197
1446670,0.32574,-23.9832,-0.61488,3.08,33.53,-8.12,-0.1932,-89.5062,182.972,982.1,3,268.172
1446680,0.32574,-23.9832,-0.61488,3.08,33.53,-8.12,-0.1932,-89.5062,182.972,982.1,3,268.172
1446690,0.32574,-23.9832,-0.61488,3.08,33.53,-8.12,-0.1932,-89.5062,182.972,982.57,3,264.061
1446700,0.392352,-23.9832,-0.597312,8.75,33.6,-0.98,-0.19936,-89.5062,182.972,982.57,3,264.061
1446710,0.392352,-23.9832,-0.597312,8.75,33.6,-0.98,-0.19936,-89.5062,182.972,982.57,3,264.061
1446720,0.09516,-23.9832,-0.5124,9.66,39.06,5.95,-0.20412,-89.5062,182.961,982.82,3,261.871
1446730,0.09516,-23.9832,-0.5124,9.66,39.06,5.95,-0.20412,-89.5062,182.961,982.82,3,261.871
1446740,0.09516,-23.9832,-0.5124,9.66,39.06,5.95,-0.20412,-89.5062,182.961,982.82,3,261.871
1446750,0.199836,-23.9832,-0.357216,8.4,38.01,11.34,-0.20384,-89.5062,182.961,982.93,3,260.925
1446760,0.199836,-23.9832,-0.357216,8.4,38.01,11.34,-0.20384,-89.5062,182.961,982.93,3,260.925
1446770,0.133956,-23.9832,-0.515328,12.81,35.21,15.19,-0.20048,-89.5062,182.961,982.96,3,260.654
1446780,0.133956,-23.9832,-0.515328,12.81,35.21,15.19,-0.20048,-89.5062,182.961,982.96,3,260.654
1446790,0.133956,-23.9832,-0.515328,12.81,35.21,15.19,-0.20048,-89.5062,182.961,982.96,3,260.654
1446800,-0.213744,-23.9832,-0.030744,10.43,45.64,15.82,-0.203,-89.5062,182.945,983.11,3,259.33
1446810,-0.213744,-23.9832,-0.030744,10.43,45.64,15.82,-0.203,-89.5062,182.945,983.11,3,259.33
1446820,-0.213744,-23.9832,-0.030744,10.43,45.64,15.82,-0.203,-89.5062,182.945,983.11,3,259.33
1446830,-0.733464,-23.9832,-0.147132,3.57,54.04,16.87,-0.2009,-89.5062,182.945,983.17,3,258.814
1446840,-0.733464,-23.9832,-0.147132,3.57,54.04,16.87,-0.2009,-89.5062,182.945,983.17,3,258.814
1446850,-0.765672,-23.9832,-0.207156,7.0,56.35,13.23,-0.19964,-89.5062,182.945,983.26,3,258.044
1446860,-0.765672,-23.9832,-0.207156,7.0,56.35,13.23,-0.19964,-89.5062,182.945,983.26,3,258.044
1446870,-0.765672,-23.9832,-0.207156,7.0,56.35,13.23,-0.19964,-89.5062,182.945,983.26,3,258.044
1446880,-0.833016,-23.9832,-0.635376,-5.39,73.99,1.75,-0.19824,-89.5062,182.945,983.42,3,256.59
1446890,-0.833016,-23.9832,-0.635376,-5.39,73.99,1.75,-0.19824,-89.5062,182.945,983.42,3,256.59
1446900,-0.833016,-23.9832,-0.635376,-5.39,73.99,1.75,-0.19824,-89.5062,182.945,983.42,3,256.59
1446910,-0.833016,-23.9832,-0.635376,-5.39,73.99,1.75,-0.19824,-89.5062,182.945,983.42,3,256.59
1446920,-0.849852,-23.9832,-0.203496,1.05,75.11,-3.85,-0.20048,-89.5062,182.945,983.84,3,252.931
1446930,-0.849852,-23.9832,-0.203496,1.05,75.11,-3.85,-0.20048,-89.5062,182.945,983.84,3,252.931
1446940,-0.849852,-23.9832,-0.203496,1.05,75.11,-3.85,-0.20048,-89.5062,182.945,983.84,3,252.931
1446950,-1.12801,-23.9832,-0.338184,8.33,101.01,-7.0,-0.20482,-89.5062,182.945,984.21,3,249.686
1446960,-1.12801,-23.9832,-0.338184,8.33,101.01,-7.0,-0.20482,-89.5062,182.945,984.21,3,249.686
1446970,-0.12078,-23.9832,0.561444,-0.91,100.24,-11.62,-0.21014,-89.5062,182.945,984.94,3,243.31
1446980,-0.12078,-23.9832,0.561444,-0.91,100.24,-11.62,-0.21014,-89.5062,182.945,984.94,3,243.31
1446990,-0.12078,-23.9832,0.561444,-0.91,100.24,-11.62,-0.21014,-89.5062,182.945,984.94,3,243.31
1447000,0.240828,-23.9832,-0.060756,-22.89,107.66,-7.91,-0.2184,-89.5062,182.936,985.45,3,238.862
1447010,0.240828,-23.9832,-0.060756,-22.89,107.66,-7.91,-0.2184,-89.5062,182.936,985.45,3,238.862
1447020,0.240828,-23.9832,-0.060756,-22.89,107.66,-7.91,-0.2184,-89.5062,182.936,985.45,3,238.862
1447030,0.330132,-23.9832,-1.10605,-0.84,94.29,-3.71,-0.2198,-89.5062,182.936,986.19,3,232.398
1447040,0.330132,-23.9832,-1.10605,-0.84,94.29,-3.71,-0.2198,-89.5062,182.936,986.19,3,232.398
1447050,0.609756,-23.9832,1.3154,-9.03,104.51,0.07,-0.22484,-89.5062,182.936,986.51,3,229.597
1447060,0.609756,-23.9832,1.3154,-9.03,104.51,0.07,-0.22484,-89.5062,182.936,986.51,3,229.597
1447070,0.609756,-23.9832,1.3154,-9.03,104.51,0.07,-0.22484,-89.5062,182.936,986.51,3,229.597
1447080,-0.229848,-22.7008,-0.101016,21.98,74.62,8.96,-0.22456,-89.5062,182.936,986.99,3,225.401
1447090,-0.229848,-22.7008,-0.101016,21.98,74.62,8.96,-0.22456,-89.5062,182.936,986.99,3,225.401
1447100,-0.229848,-22.7008,-0.101016,21.98,74.62,8.96,-0.22456,-89.5062,182.936,986.99,3,225.401
1447110,-0.229848,-22.7008,-0.101016,21.98,74.62,8.96,-0.22456,-89.5062,182.936,986.99,3,225.401
1447120,0.516792,-22.0142,-0.254736,31.5,88.48,12.25,-0.21896,-89.5062,182.936,986.82,3,226.884
1447130,0.516792,-22.0142,-0.254736,31.5,88.48,12.25,-0.21896,-89.5062,182.936,986.82,3,226.884
1447140,0.516792,-22.0142,-0.254736,31.5,88.48,12.25,-0.21896,-89.5062,182.936,986.82,3,226.884
1447150,-0.477264,-20.0941,0.152988,14.56,106.75,10.08,-0.22246,-89.5062,182.936,986.77,3,227.321
1447160,-0.477264,-20.0941,0.152988,14.56,106.75,10.08,-0.22246,-89.5062,182.936,986.77,3,227.321
1447170,-0.176412,-18.7085,0.171288,27.23,89.81,6.58,-0.21952,-89.5062,182.936,986.62,3,228.629
1447180,-0.176412,-18.7085,0.171288,27.23,89.81,6.58,-0.21952,-89.5062,182.936,986.62,3,228.629
1447190,-0.176412,-18.7085,0.171288,27.23,89.81,6.58,-0.21952,-89.5062,182.936,986.62,3,228.629
1447200,-0.699792,-11.1784,0.69906,-51.8,141.05,1.26,-0.21252,-89.5062,182.923,986.55,3,229.248
1447210,-0.699792,-11.1784,0.69906,-51.8,141.05,1.26,-0.21252,-89.5062,182.923,986.55,3,229.248
1447220,-0.699792,-11.1784,0.69906,-51.8,141.05,1.26,-0.21252,-89.5062,182.923,986.55,3,229.248
1447230,0.163968,-3.29034,0.088572,-16.59,135.03,-0.35,-0.19264,-89.5062,182.923,986.47,3,229.954
1447240,0.163968,-3.29034,0.088572,-16.59,135.03,-0.35,-0.19264,-89.5062,182.923,986.47,3,229.954
1447250,-0.162504,0.803004,-0.583404,-3.85,168.07,-6.3,-0.17794,-89.5062,182.923,986.07,3,233.438
1447260,-0.162504,0.803004,-0.583404,-3.85,168.07,-6.3,-0.17794,-89.5062,182.923,986.07,3,233.438
1447270,-0.162504,0.803004,-0.583404,-3.85,168.07,-6.3,-0.17794,-89.5062,182.923,986.07,3,233.438
1447280,0.032208,1.80877,-0.304512,-3.64,167.79,-4.48,-0.17276,-89.5062,182.923,984.13,3,250.385
1447290,0.032208,1.80877,-0.304512,-3.64,167.79,-4.48,-0.17276,-89.5062,182.923,984.13,3,250.385
1447300,0.032208,1.80877,-0.304512,-3.64,167.79,-4.48,-0.17276,-89.5062,182.923,984.13,3,250.385
1447310,0.032208,1.80877,-0.304512,-3.64,167.79,-4.48,-0.17276,-89.5062,182.923,984.13,3,250.385
1447320,0.330864,2.37241,-1.02773,-2.03,157.85,-1.4,-0.1792,-89.5062,182.923,984.83,3,244.264
1447330,0.330864,2.37241,-1.02773,-2.03,157.85,-1.4,-0.1792,-89.5062,182.923,984.83,3,244.264
1447340,0.330864,2.37241,-1.02773,-2.03,157.85,-1.4,-0.1792,-89.5062,182.923,984.83,3,244.264
1447350,1.24586,1.85123,0.006588,12.95,151.97,1.68,-0.17906,-89.5062,182.923,983.72,3,253.998
1447360,1.24586,1.85123,0.006588,12.95,151.97,1.68,-0.17906,-89.5062,182.923,983.72,3,253.998
1447370,0.185928,2.22821,0.042456,19.67,150.22,4.55,-0.17738,-89.5062,182.923,982.77,3,262.309
1447380,0.185928,2.22821,0.042456,19.67,150.22,4.55,-0.17738,-89.5062,182.923,982.77,3,262.309
1447390,0.185928,2.22821,0.042456,19.67,150.22,4.55,-0.17738,-89.5062,182.923,982.77,3,262.309
1447400,0.772992,2.16599,-0.017568,-2.17,165.27,4.97,-0.16884,-89.5062,182.902,982.02,3,268.882
1447410,0.772992,2.16599,-0.017568,-2.17,165.27,4.97,-0.16884,-89.5062,182.902,982.02,3,268.882
1447420,0.914268,2.52174,0.497028,-10.5,124.67,5.53,-0.16408,-89.5062,182.902,980.3,3,283.985
1447430,0.914268,2.52174,0.497028,-10.5,124.67,5.53,-0.16408,-89.5062,182.902,980.3,3,283.985
1447440,0.914268,2.52174,0.497028,-10.5,124.67,5.53,-0.16408,-89.5062,182.902,980.3,3,283.985
1447450,0.019764,2.35997,-0.155184,11.97,145.95,8.4,-0.15834,-89.5062,182.902,979.3,3,292.763
1447460,0.019764,2.35997,-0.155184,11.97,145.95,8.4,-0.15834,-89.5062,182.902,979.3,3,292.763
1447470,0.019764,2.35997,-0.155184,11.97,145.95,8.4,-0.15834,-89.5062,182.902,979.3,3,292.763
1447480,0.297192,2.77062,-0.011712,17.5,175.56,4.13,-0.14854,-89.5062,182.902,976.81,3,314.662
1447490,0.297192,2.77062,-0.011712,17.5,175.56,4.13,-0.14854,-89.5062,182.902,976.81,3,314.662
1447500,0.297192,2.77062,-0.011712,17.5,175.56,4.13,-0.14854,-89.5062,182.902,976.81,3,314.662
1447510,0.297192,2.77062,-0.011712,17.5,175.56,4.13,-0.14854,-89.5062,182.902,976.81,3,314.662
1447520,-0.182268,2.06278,0.756156,21.98,146.02,6.58,-0.14882,-89.5062,182.902,975.82,3,323.414
1447530,-0.182268,2.06278,0.756156,21.98,146.02,6.58,-0.14882,-89.5062,182.902,975.82,3,323.414
1447540,-0.041724,2.36582,0.092232,21.63,151.27,6.86,-0.13888,-89.5062,182.902,974.51,3,334.992
1447550,-0.041724,2.36582,0.092232,21.63,151.27,6.86,-0.13888,-89.5062,182.902,974.51,3,334.992
1447560,-0.041724,2.36582,0.092232,21.63,151.27,6.86,-0.13888,-89.5062,182.902,974.51,3,334.992
1447570,0.736392,2.43244,-0.632448,-10.64,141.05,7.28,-0.12992,-89.5062,182.902,973.45,3,344.351
1447580,0.736392,2.43244,-0.632448,-10.64,141.05,7.28,-0.12992,-89.5062,182.902,973.45,3,344.351
1447590,0.736392,2.43244,-0.632448,-10.64,141.05,7.28,-0.12992,-89.5062,182.902,973.45,3,344.351
1447600,0.381372,1.95078,-0.791292,-19.11,167.86,6.65,-0.12572,-89.5062,182.879,972.24,3,355.072
1447610,0.381372,1.95078,-0.791292,-19.11,167.86,6.65,-0.12572,-89.5062,182.879,972.24,3,355.072
1447620,0.180072,2.28896,-0.204228,4.76,168.7,4.69,-0.11102,-89.5062,182.879,971.11,3,365.085
1447630,0.180072,2.28896,-0.204228,4.76,168.7,4.69,-0.11102,-89.5062,182.879,971.11,3,365.085
1447640,0.180072,2.28896,-0.204228,4.76,168.7,4.69,-0.11102,-89.5062,182.879,971.11,3,365.085
1447650,0.136884,2.4134,-0.676368,-6.79,162.61,2.31,-0.10332,-89.5062,182.879,969.76,3,377.089
1447660,0.136884,2.4134,-0.676368,-6.79,162.61,2.31,-0.10332,-89.5062,182.879,969.76,3,377.089
1447670,0.136884,2.4134,-0.676368,-6.79,162.61,2.31,-0.10332,-89.5062,182.879,969.76,3,377.089
1447680,0.644892,2.25822,-0.039528,-1.96,162.47,1.12,-0.08722,-89.5062,182.879,967.97,3,392.931
1447690,0.644892,2.25822,-0.039528,-1.96,162.47,1.12,-0.08722,-89.5062,182.879,967.97,3,392.931
1447700,0.644892,2.25822,-0.039528,-1.96,162.47,1.12,-0.08722,-89.5062,182.879,967.97,3,392.931
1447710,0.644892,2.25822,-0.039528,-1.96,162.47,1.12,-0.08722,-89.5062,182.879,967.97,3,392.931
1447720,0.06588,2.53272,-0.319152,32.97,136.99,3.99,-0.07966,-89.5062,182.879,967.09,3,400.776
1447730,0.06588,2.53272,-0.319152,32.97,136.99,3.99,-0.07966,-89.5062,182.879,967.09,3,400.776
1447740,0.549732,2.09425,-0.349164,-15.96,156.87,4.62,-0.0693,-89.5062,182.879,966.33,3,407.572
1447750,0.549732,2.09425,-0.349164,-15.96,156.87,4.62,-0.0693,-89.5062,182.879,966.33,3,407.572
1447760,0.549732,2.09425,-0.349164,-15.96,156.87,4.62,-0.0693,-89.5062,182.879,966.33,3,407.572
1447770,0.379176,2.1799,0.732,-11.48,156.03,6.37,-0.0567,-89.5062,182.879,965.09,3,418.628
1447780,0.379176,2.1799,0.732,-11.48,156.03,6.37,-0.0567,-89.5062,182.879,965.09,3,418.628
1447790,0.379176,2.1799,0.732,-11.48,156.03,6.37,-0.0567,-89.5062,182.879,965.09,3,418.628
1447800,0.806664,2.2714,-0.427488,16.66,144.69,8.19,-0.04928,-89.5062,182.853,963.7,3,431.038
1447810,0.806664,2.2714,-0.427488,16.66,144.69,8.19,-0.04928,-89.5062,182.853,963.7,3,431.038
1447820,0.28182,2.22601,-0.302316,21.56,153.58,8.47,-0.03626,-89.5062,182.853,962.7,3,439.977
1447830,0.28182,2.22601,-0.302316,21.56,153.58,8.47,-0.03626,-89.5062,182.853,962.7,3,439.977
1447840,0.28182,2.22601,-0.302316,21.56,153.58,8.47,-0.03626,-89.5062,182.853,962.7,3,439.977
1447850,-0.00732,2.17697,-0.463356,0.07,167.51,5.53,-0.02534,-89.5062,182.853,961.68,3,449.105
1447860,-0.00732,2.17697,-0.463356,0.07,167.51,5.53,-0.02534,-89.5062,182.853,961.68,3,449.105
1447870,-0.08418,0.972828,0.111996,-14.07,161.35,7.07,-0.01232,-89.5062,182.853,959.87,3,465.294
1447880,-0.08418,0.972828,0.111996,-14.07,161.35,7.07,-0.01232,-89.5062,182.853,959.87,3,465.294
1447890,-0.08418,0.972828,0.111996,-14.07,161.35,7.07,-0.01232,-89.5062,182.853,959.87,3,465.294
1447900,-0.08418,0.972828,0.111996,-14.07,161.35,7.07,-0.01232,-89.5062,182.853,959.87,3,465.294
1447910,-0.08418,0.972828,0.111996,-14.07,161.35,7.07,-0.01232,-89.5062,182.853,959.87,3,465.294
1447920,-0.120048,2.44781,1.93541,10.92,150.99,8.33,0.00826,-89.5062,182.853,958.65,3,476.245
1447930,-0.120048,2.44781,1.93541,10.92,150.99,8.33,0.00826,-89.5062,182.853,958.65,3,476.245
1447940,0.458232,2.42219,-0.54534,13.37,147.21,4.62,0.01092,-89.5062,182.853,957.78,3,484.061
1447950,0.458232,2.42219,-0.54534,13.37,147.21,4.62,0.01092,-89.5062,182.853,957.78,3,484.061
1447960,0.458232,2.42219,-0.54534,13.37,147.21,4.62,0.01092,-89.5062,182.853,957.78,3,484.061
1447970,-0.004392,2.03423,0.00366,-7.7,138.53,3.08,0.02002,-89.5062,182.853,957.07,3,490.479
1447980,-0.004392,2.03423,0.00366,-7.7,138.53,3.08,0.02002,-89.5062,182.853,957.07,3,490.479
1447990,0.349896,2.28457,0.3477,2.52,150.36,1.82,0.02716,-89.5062,182.853,955.71,3,502.723
1448000,0.349896,2.28457,0.3477,2.52,150.36,1.82,0.02716,-89.5062,182.822,955.71,3,502.723
1448010,0.349896,2.28457,0.3477,2.52,150.36,1.82,0.02716,-89.5062,182.822,955.71,3,502.723
1448020,0.304512,1.79852,-0.17202,18.13,141.19,2.52,0.03752,-89.5062,182.822,954.49,3,513.722
1448030,0.304512,1.79852,-0.17202,18.13,141.19,2.52,0.03752,-89.5062,182.822,954.49,3,513.722
1448040,0.304512,1.79852,-0.17202,18.13,141.19,2.52,0.03752,-89.5062,182.822,954.49,3,513.722
1448050,0.217404,1.83805,0.633912,29.96,135.87,2.52,0.04816,-89.5062,182.822,953.37,3,523.831
1448060,0.217404,1.83805,0.633912,29.96,135.87,2.52,0.04816,-89.5062,182.822,953.37,3,523.831
1448070,0.226188,1.93248,-0.05856,-3.01,127.96,1.82,0.06076,-89.5062,182.822,952.06,3,535.634
1448080,0.226188,1.93248,-0.05856,-3.01,127.96,1.82,0.06076,-89.5062,182.822,952.06,3,535.634
1448090,0.226188,1.93248,-0.05856,-3.01,127.96,1.82,0.06076,-89.5062,182.822,952.06,3,535.634
1448100,0.226188,1.93248,-0.05856,-3.01,127.96,1.82,0.06076,-89.5062,182.822,952.06,3,535.634
1448110,0.226188,1.93248,-0.05856,-3.01,127.96,1.82,0.06076,-89.5062,182.822,952.06,3,535.634
1448120,0.412848,2.29994,-0.06954,-1.33,156.17,3.15,0.06874,-89.5062,182.822,951.07,3,544.573
1448130,0.412848,2.29994,-0.06954,-1.33,156.17,3.15,0.06874,-89.5062,182.822,951.07,3,544.573
1448140,0.50874,1.98518,0.166896,8.12,134.12,5.81,0.08106,-89.5062,182.822,949.79,3,556.187
1448150,0.50874,1.98518,0.166896,8.12,134.12,5.81,0.08106,-89.5062,182.822,949.79,3,556.187
1448160,0.50874,1.98518,0.166896,8.12,134.12,5.81,0.08106,-89.5062,182.822,949.79,3,556.187
1448170,0.507276,1.79779,0.067344,21.84,152.88,7.56,0.0847,-89.5062,182.822,948.95,3,563.805
1448180,0.507276,1.79779,0.067344,21.84,152.88,7.56,0.0847,-89.5062,182.822,948.95,3,563.805
1448190,0.40626,1.90247,0.050508,11.48,147.7,5.88,0.08932,-89.5062,182.778,947.85,3,573.791
1448200,0.40626,1.90247,0.050508,11.48,147.7,5.88,0.08932,-89.5062,182.778,947.85,3,573.791
1448210,0.40626,1.90247,0.050508,11.48,147.7,5.88,0.08932,-89.5062,182.778,947.85,3,573.791
1448220,0.32574,1.79706,-0.023424,1.47,131.6,7.28,0.09758,-89.5062,182.778,946.81,3,583.262
1448230,0.32574,1.79706,-0.023424,1.47,131.6,7.28,0.09758,-89.5062,182.778,946.81,3,583.262
1448240,0.32574,1.79706,-0.023424,1.47,131.6,7.28,0.09758,-89.5062,182.778,946.81,3,583.262
1448250,0.177876,1.6836,-0.127368,9.73,156.45,6.02,0.10066,-89.5062,182.778,945.62,3,594.091
1448260,0.177876,1.6836,-0.127368,9.73,156.45,6.02,0.10066,-89.5062,182.778,945.62,3,594.091
1448270,0.0549,2.0152,0.2196,2.59,141.96,5.67,0.1106,-89.5062,182.778,944.21,3,606.898
1448280,0.0549,2.0152,0.2196,2.59,141.96,5.67,0.1106,-89.5062,182.778,944.21,3,606.898
1448290,0.0549,2.0152,0.2196,2.59,141.96,5.67,0.1106,-89.5062,182.778,944.21,3,606.898
1448300,0.0549,2.0152,0.2196,2.59,141.96,5.67,0.1106,-89.5062,182.778,944.21,3,606.898
1448310,0.5124,2.00056,0.445056,33.88,132.37,5.53,0.1162,-89.5062,182.778,943.18,3,616.315
1448320,0.5124,2.00056,0.445056,33.88,132.37,5.53,0.1162,-89.5062,182.778,943.18,3,616.315
1448330,0.5124,2.00056,0.445056,33.88,132.37,5.53,0.1162,-89.5062,182.778,943.18,3,616.315
1448340,0.141276,1.58551,0.078324,2.94,139.79,4.97,0.1197,-89.5062,182.778,941.98,3,627.276
1448350,0.141276,1.58551,0.078324,2.94,139.79,4.97,0.1197,-89.5062,182.778,941.98,3,627.276
1448360,0.141276,1.58551,0.078324,2.94,139.79,4.97,0.1197,-89.5062,182.778,941.98,3,627.276
1448370,0.294996,1.54306,-0.324276,13.79,139.02,4.2,0.12222,-89.5062,182.778,941.23,3,634.156
1448380,0.294996,1.54306,-0.324276,13.79,139.02,4.2,0.12222,-89.5062,182.778,941.23,3,634.156
1448390,0.471408,1.71434,-0.88938,20.58,130.34,4.2,0.12572,-89.5062,182.736,939.97,3,645.69
1448400,0.471408,1.71434,-0.88938,20.58,130.34,4.2,0.12572,-89.5062,182.736,939.97,3,645.69
1448410,0.471408,1.71434,-0.88938,20.58,130.34,4.2,0.12572,-89.5062,182.736,939.97,3,645.69
1448420,0.298656,1.64261,-0.28914,13.37,136.36,5.11,0.1281,-89.5062,182.736,939.28,3,652.034
1448430,0.298656,1.64261,-0.28914,13.37,136.36,5.11,0.1281,-89.5062,182.736,939.28,3,652.034
1448440,0.238632,1.78242,-0.484584,7.56,133.91,3.64,0.13342,-89.5062,182.736,938.46,3,659.532
1448450,0.238632,1.78242,-0.484584,7.56,133.91,3.64,0.13342,-89.5062,182.736,938.46,3,659.532
1448460,0.238632,1.78242,-0.484584,7.56,133.91,3.64,0.13342,-89.5062,182.736,938.46,3,659.532
1448470,0.1098,1.8322,0.429684,11.34,120.75,6.23,0.13524,-89.5062,182.736,936.64,3,676.2
1448480,0.1098,1.8322,0.429684,11.34,120.75,6.23,0.13524,-89.5062,182.736,936.64,3,676.2
1448490,0.1098,1.8322,0.429684,11.34,120.75,6.23,0.13524,-89.5062,182.736,936.64,3,676.2
1448500,0.1098,1.8322,0.429684,11.34,120.75,6.23,0.13524,-89.5062,182.736,936.64,3,676.2
1448510,0.414312,2.27798,0.251808,3.92,155.26,5.67,0.13118,-89.5062,182.736,935.67,3,685.144
1448520,0.414312,2.27798,0.251808,3.92,155.26,5.67,0.13118,-89.5062,182.736,935.67,3,685.144
1448530,0.414312,2.27798,0.251808,3.92,155.26,5.67,0.13118,-89.5062,182.736,935.67,3,685.144
1448540,0.40992,1.70263,-0.22326,6.93,135.45,5.25,0.12768,-89.5062,182.736,934.9,3,692.256
1448550,0.40992,1.70263,-0.22326,6.93,135.45,5.25,0.12768,-89.5062,182.736,934.9,3,692.256
1448560,0.40992,1.70263,-0.22326,6.93,135.45,5.25,0.12768,-89.5062,182.736,934.9,3,692.256
1448570,0.255468,1.6126,0.224724,-2.1,127.12,4.83,0.13244,-89.5062,182.736,933.84,3,702.024
1448580,0.255468,1.6126,0.224724,-2.1,127.12,4.83,0.13244,-89.5062,182.736,933.84,3,702.024
1448590,0.423096,1.6492,-0.55266,2.31,119.91,4.27,0.12922,-89.5062,182.714,932.85,3,711.132
1448600,0.423096,1.6492,-0.55266,2.31,119.91,4.27,0.12922,-89.5062,182.714,932.85,3,711.132
1448610,0.423096,1.6492,-0.55266,2.31,119.91,4.27,0.12922,-89.5062,182.714,932.85,3,711.132
1448620,0.46848,1.69604,0.25254,0.84,146.23,4.27,0.13104,-89.5062,182.714,931.86,3,720.274
1448630,0.46848,1.69604,0.25254,0.84,146.23,4.27,0.13104,-89.5062,182.714,931.86,3,720.274
1448640,0.456036,1.92077,-0.34038,7.63,117.39,5.25,0.12376,-89.5062,182.714,931.18,3,726.584
1448650,0.456036,1.92077,-0.34038,7.63,117.39,5.25,0.12376,-89.5062,182.714,931.18,3,726.584
1448660,0.456036,1.92077,-0.34038,7.63,117.39,5.25,0.12376,-89.5062,182.714,931.18,3,726.584
1448670,0.319884,1.57234,-0.401136,2.31,139.93,4.76,0.12712,-89.5063,182.705,930.21,3,735.533
1448680,0.319884,1.57234,-0.401136,2.31,139.93,4.76,0.12712,-89.5063,182.705,930.21,3,735.533
1448690,0.319884,1.57234,-0.401136,2.31,139.93,4.76,0.12712,-89.5063,182.705,930.21,3,735.533
1448700,0.256932,1.85489,0.078324,-7.49,141.4,3.85,0.1176,-89.5063,182.705,929.12,3,745.703
1448710,0.256932,1.85489,0.078324,-7.49,141.4,3.85,0.1176,-89.5063,182.705,929.12,3,745.703
1448720,0.508008,1.50353,-0.50508,16.17,148.68,5.88,0.12068,-89.5063,182.705,928.27,3,753.558
1448730,0.508008,1.50353,-0.50508,16.17,148.68,5.88,0.12068,-89.5063,182.705,928.27,3,753.558
1448740,0.508008,1.50353,-0.50508,16.17,148.68,5.88,0.12068,-89.5063,182.705,928.27,3,753.558
1448750,0.189588,1.78022,0.07686,-1.19,132.23,4.9,0.11634,-89.5063,182.69,927.38,3,761.843
1448760,0.189588,1.78022,0.07686,-1.19,132.23,4.9,0.11634,-89.5063,182.69,927.38,3,761.843
1448770,0.565104,1.5716,-0.663192,17.15,128.38,4.27,0.1113,-89.5063,182.69,926.11,3,773.591
1448780,0.565104,1.5716,-0.663192,17.15,128.38,4.27,0.1113,-89.5063,182.69,926.11,3,773.591
1448790,0.565104,1.5716,-0.663192,17.15,128.38,4.27,0.1113,-89.5063,182.69,926.11,3,773.591
1448800,-0.030744,1.70629,-0.374784,-10.71,111.58,3.22,0.10514,-89.5063,182.69,925.71,3,777.337
1448810,-0.030744,1.70629,-0.374784,-10.71,111.58,3.22,0.10514,-89.5063,182.69,925.71,3,777.337
1448820,-0.030744,1.70629,-0.374784,-10.71,111.58,3.22,0.10514,-89.5063,182.69,925.71,3,777.337
1448830,0.04026,1.61845,0.060756,18.27,113.61,4.97,0.10178,-89.5063,182.69,924.32,3,790.248
1448840,0.04026,1.61845,0.060756,18.27,113.61,4.97,0.10178,-89.5063,182.69,924.32,3,790.248
1448850,0.428952,1.78388,-0.140544,-1.47,124.53,3.71,0.0959,-89.5063,182.677,923.81,3,795.081
1448860,0.428952,1.78388,-0.140544,-1.47,124.53,3.71,0.0959,-89.5063,182.677,923.81,3,795.081
1448870,0.428952,1.78388,-0.140544,-1.47,124.53,3.71,0.0959,-89.5063,182.677,923.81,3,795.081
1448880,0.196908,1.55989,-0.464088,18.06,126.35,4.48,0.08876,-89.5063,182.677,922.95,3,803.075
1448890,0.196908,1.55989,-0.464088,18.06,126.35,4.48,0.08876,-89.5063,182.677,922.95,3,803.075
1448900,0.587796,1.70776,-0.096624,8.05,118.65,5.04,0.08022,-89.5063,182.677,921.94,3,812.474
1448910,0.587796,1.70776,-0.096624,8.05,118.65,5.04,0.08022,-89.5063,182.677,921.94,3,812.474
1448920,0.587796,1.70776,-0.096624,8.05,118.65,5.04,0.08022,-89.5063,182.677,921.94,3,812.474
1448930,0.220332,1.53574,-0.024156,-17.15,110.11,6.09,0.07406,-89.5063,182.664,920.7,3,824.091
1448940,0.220332,1.53574,-0.024156,-17.15,110.11,6.09,0.07406,-89.5063,182.664,920.7,3,824.091
1448950,0.220332,1.53574,-0.024156,-17.15,110.11,6.09,0.07406,-89.5063,182.664,920.7,3,824.091
1448960,0.13176,1.76851,-0.12078,21.63,118.93,6.09,0.06818,-89.5063,182.664,920.08,3,829.892
1448970,0.13176,1.76851,-0.12078,21.63,118.93,6.09,0.06818,-89.5063,182.664,920.08,3,829.892
1448980,0.459696,1.32126,-0.262056,4.97,125.51,4.62,0.05978,-89.5063,182.664,919.04,3,839.63
1448990,0.459696,1.32126,-0.262056,4.97,125.51,4.62,0.05978,-89.5063,182.664,919.04,3,839.63
1449000,0.459696,1.32126,-0.262056,4.97,125.51,4.62,0.05978,-89.5063,182.664,919.04,3,839.63
1449010,0.065148,1.8095,-0.213744,-12.6,136.15,4.97,0.05334,-89.5063,182.652,918.35,3,846.069
1449020,0.065148,1.8095,-0.213744,-12.6,136.15,4.97,0.05334,-89.5063,182.652,918.35,3,846.069
1449030,0.065148,1.8095,-0.213744,-12.6,136.15,4.97,0.05334,-89.5063,182.652,918.35,3,846.069
1449040,0.010248,1.65359,0.008784,12.67,124.39,6.3,0.04298,-89.5063,182.652,917.49,3,854.164
1449050,0.010248,1.65359,0.008784,12.67,124.39,6.3,0.04298,-89.5063,182.652,917.49,3,854.164
1449060,0.16104,1.647,-0.453108,2.1,124.81,5.95,0.03934,-89.5063,182.652,916.63,3,862.268
1449070,0.16104,1.647,-0.453108,2.1,124.81,5.95,0.03934,-89.5063,182.652,916.63,3,862.268
1449080,0.16104,1.647,-0.453108,2.1,124.81,5.95,0.03934,-89.5063,182.652,916.63,3,862.268
1449090,0.254736,1.49914,-0.034404,4.06,122.99,5.88,0.03402,-89.5063,182.638,915.7,3,870.951
1449100,0.254736,1.49914,-0.034404,4.06,122.99,5.88,0.03402,-89.5063,182.638,915.7,3,870.951
1449110,0.322812,1.62943,-0.064416,-0.77,111.58,4.41,0.02436,-89.5063,182.638,914.73,3,880.106
1449120,0.322812,1.62943,-0.064416,-0.77,111.58,4.41,0.02436,-89.5063,182.638,914.73,3,880.106
1449130,0.322812,1.62943,-0.064416,-0.77,111.58,4.41,0.02436,-89.5063,182.638,914.73,3,880.106
1449140,0.177876,1.39885,-0.076128,6.09,113.26,5.18,0.01582,-89.5063,182.638,913.87,3,888.205
1449150,0.177876,1.39885,-0.076128,6.09,113.26,5.18,0.01582,-89.5063,182.638,913.87,3,888.205
1449160,0.177876,1.39885,-0.076128,6.09,113.26,5.18,0.01582,-89.5063,182.638,913.87,3,888.205
1449170,-0.0915,1.56428,0.222528,0.91,121.59,5.18,0.00882,-89.5063,182.638,913.15,3,894.961
1449180,-0.0915,1.56428,0.222528,0.91,121.59,5.18,0.00882,-89.5063,182.638,913.15,3,894.961
1449190,0.233508,1.45522,-0.286212,2.66,120.12,4.69,-0.00294,-89.5063,182.624,912.11,3,904.773
1449200,0.233508,1.45522,-0.286212,2.66,120.12,4.69,-0.00294,-89.5063,182.624,912.11,3,904.773
1449210,0.233508,1.45522,-0.286212,2.66,120.12,4.69,-0.00294,-89.5063,182.624,912.11,3,904.773
1449220,0.259128,1.44058,0.081252,-6.93,118.79,4.2,-0.01344,-89.5063,182.624,911.47,3,910.848
1449230,0.259128,1.44058,0.081252,-6.93,118.79,4.2,-0.01344,-89.5063,182.624,911.47,3,910.848
1449240,-0.062952,1.4618,0.428952,11.34,119.07,5.25,-0.021,-89.5063,182.624,910.74,3,917.778
1449250,-0.062952,1.4618,0.428952,11.34,119.07,5.25,-0.021,-89.5063,182.624,910.74,3,917.778
1449260,-0.062952,1.4618,0.428952,11.34,119.07,5.25,-0.021,-89.5063,182.624,910.74,3,917.778
1449270,0.404796,1.47205,-0.341844,-5.81,122.08,4.41,-0.0329,-89.5063,182.624,909.33,3,931.025
1449280,0.404796,1.47205,-0.341844,-5.81,122.08,4.41,-0.0329,-89.5063,182.624,909.33,3,931.025
1449290,0.404796,1.47205,-0.341844,-5.81,122.08,4.41,-0.0329,-89.5063,182.624,909.33,3,931.025
1449300,0.404796,1.47205,-0.341844,-5.81,122.08,4.41,-0.0329,-89.5063,182.624,909.33,3,931.025
1449310,0.149328,1.53208,-0.532896,-3.01,120.89,4.62,-0.04074,-89.5063,182.624,908.29,3,940.878
1449320,0.149328,1.53208,-0.532896,-3.01,120.89,4.62,-0.04074,-89.5063,182.624,908.29,3,940.878
1449330,0.149328,1.53208,-0.532896,-3.01,120.89,4.62,-0.04074,-89.5063,182.624,908.29,3,940.878
1449340,0.348432,1.53354,-0.129564,1.61,106.26,4.9,-0.05236,-89.5063,182.624,907.35,3,949.729
1449350,0.348432,1.53354,-0.129564,1.61,106.26,4.9,-0.05236,-89.5063,182.624,907.35,3,949.729
1449360,0.334524,1.34395,-0.52704,3.5,111.44,6.16,-0.05488,-89.5063,182.624,906.57,3,957.263
1449370,0.334524,1.34395,-0.52704,3.5,111.44,6.16,-0.05488,-89.5063,182.624,906.57,3,957.263
1449380,0.334524,1.34395,-0.52704,3.5,111.44,6.16,-0.05488,-89.5063,182.624,906.57,3,957.263
1449390,0.199836,1.40544,-0.213012,9.59,122.64,5.46,-0.06874,-89.5063,182.596,905.44,3,967.904
1449400,0.199836,1.40544,-0.213012,9.59,122.64,5.46,-0.06874,-89.5063,182.596,905.44,3,967.904
1449410,0.199836,1.40544,-0.213012,9.59,122.64,5.46,-0.06874,-89.5063,182.596,905.44,3,967.904
1449420,0.152988,0.996984,-0.174948,-10.57,119.28,5.39,-0.07434,-89.5063,182.596,904.93,3,972.788
1449430,0.152988,0.996984,-0.174948,-10.57,119.28,5.39,-0.07434,-89.5063,182.596,904.93,3,972.788
1449440,0.258396,1.48376,-0.37332,-2.45,113.12,3.85,-0.08246,-89.5063,182.596,904.0,3,981.641
1449450,0.258396,1.48376,-0.37332,-2.45,113.12,3.85,-0.08246,-89.5063,182.596,904.0,3,981.641
1449460,0.258396,1.48376,-0.37332,-2.45,113.12,3.85,-0.08246,-89.5063,182.596,904.0,3,981.641
1449470,0.387228,1.15583,-0.156648,-6.44,113.75,2.52,-0.08946,-89.5063,182.596,902.49,3,995.967
1449480,0.387228,1.15583,-0.156648,-6.44,113.75,2.52,-0.08946,-89.5063,182.596,902.49,3,995.967
1449490,0.387228,1.15583,-0.156648,-6.44,113.75,2.52,-0.08946,-89.5063,182.596,902.49,3,995.967
1449500,0.387228,1.15583,-0.156648,-6.44,113.75,2.52,-0.08946,-89.5063,182.596,902.49,3,995.967
1449510,0.095892,1.22244,-0.172752,12.11,111.86,3.92,-0.10248,-89.5063,182.596,901.8,3,1002.62
1449520,0.095892,1.22244,-0.172752,12.11,111.86,3.92,-0.10248,-89.5063,182.596,901.8,3,1002.62
1449530,0.095892,1.22244,-0.172752,12.11,111.86,3.92,-0.10248,-89.5063,182.596,901.8,3,1002.62
1449540,0.196176,1.30662,0.185196,16.24,110.18,3.43,-0.10584,-89.5063,182.596,901.21,3,1008.22
1449550,0.196176,1.30662,0.185196,16.24,110.18,3.43,-0.10584,-89.5063,182.596,901.21,3,1008.22
1449560,0.251808,1.28905,-0.338916,15.82,118.09,3.99,-0.11004,-89.5063,182.596,900.36,3,1016.35
1449570,0.251808,1.28905,-0.338916,15.82,118.09,3.99,-0.11004,-89.5063,182.596,900.36,3,1016.35
1449580,0.251808,1.28905,-0.338916,15.82,118.09,3.99,-0.11004,-89.5063,182.596,900.36,3,1016.35
1449590,0.215208,1.26197,0.099552,7.28,111.51,3.64,-0.1148,-89.5063,182.579,899.48,3,1024.8
1449600,0.215208,1.26197,0.099552,7.28,111.51,3.64,-0.1148,-89.5063,182.579,899.48,3,1024.8
1449610,0.215208,1.26197,0.099552,7.28,111.51,3.64,-0.1148,-89.5063,182.579,899.48,3,1024.8
1449620,0.071736,1.18218,0.25254,-2.03,120.4,3.43,-0.13048,-89.5063,182.579,898.85,3,1030.83
1449630,0.071736,1.18218,0.25254,-2.03,120.4,3.43,-0.13048,-89.5063,182.579,898.85,3,1030.83
1449640,0.286944,1.43984,0.671976,10.57,114.38,4.69,-0.13342,-89.5063,182.579,897.89,3,1040.0
1449650,0.286944,1.43984,0.671976,10.57,114.38,4.69,-0.13342,-89.5063,182.579,897.89,3,1040.0
1449660,0.286944,1.43984,0.671976,10.57,114.38,4.69,-0.13342,-89.5063,182.579,897.89,3,1040.0
1449670,0.330132,1.35127,0.191784,-1.89,116.97,3.57,-0.13874,-89.5063,182.561,896.97,3,1048.82
1449680,0.330132,1.35127,0.191784,-1.89,116.97,3.57,-0.13874,-89.5063,182.561,896.97,3,1048.82
1449690,0.293532,1.54086,0.22692,4.97,110.81,4.69,-0.14,-89.5063,182.561,896.35,3,1054.81
1449700,0.293532,1.54086,0.22692,4.97,110.81,4.69,-0.14,-89.5063,182.561,896.35,3,1054.81
1449710,0.293532,1.54086,0.22692,4.97,110.81,4.69,-0.14,-89.5063,182.561,896.35,3,1054.81
1449720,0.357216,1.33736,-0.595848,17.01,124.67,4.34,-0.14406,-89.5063,182.561,895.46,3,1063.33
1449730,0.357216,1.33736,-0.595848,17.01,124.67,4.34,-0.14406,-89.5063,182.561,895.46,3,1063.33
1449740,0.357216,1.33736,-0.595848,17.01,124.67,4.34,-0.14406,-89.5063,182.561,895.46,3,1063.33
1449750,0.488976,1.36591,0.034404,0.77,115.29,4.48,-0.15414,-89.5063,182.534,894.81,3,1069.62
1449760,0.488976,1.36591,0.034404,0.77,115.29,4.48,-0.15414,-89.5063,182.534,894.81,3,1069.62
1449770,0.406992,1.17779,0.132492,-0.63,105.98,4.13,-0.16002,-89.5063,182.534,893.92,3,1078.22
1449780,0.406992,1.17779,0.132492,-0.63,105.98,4.13,-0.16002,-89.5063,182.534,893.92,3,1078.22
1449790,0.406992,1.17779,0.132492,-0.63,105.98,4.13,-0.16002,-89.5063,182.534,893.92,3,1078.22
1449800,-0.073932,1.25684,-0.167628,-9.45,110.04,4.97,-0.16534,-89.5063,182.534,893.03,3,1086.8
1449810,-0.073932,1.25684,-0.167628,-9.45,110.04,4.97,-0.16534,-89.5063,182.534,893.03,3,1086.8
1449820,0.05124,1.27514,0.220332,10.57,113.96,5.67,-0.16646,-89.5063,182.534,892.23,3,1094.48
1449830,0.05124,1.27514,0.220332,10.57,113.96,5.67,-0.16646,-89.5063,182.534,892.23,3,1094.48
1449840,0.05124,1.27514,0.220332,10.57,113.96,5.67,-0.16646,-89.5063,182.534,892.23,3,1094.48
1449850,0.354288,1.35566,-0.068808,-1.12,113.4,5.18,-0.16548,-89.5063,182.503,891.79,3,1098.76
1449860,0.354288,1.35566,-0.068808,-1.12,113.4,5.18,-0.16548,-89.5063,182.503,891.79,3,1098.76
1449870,0.354288,1.35566,-0.068808,-1.12,113.4,5.18,-0.16548,-89.5063,182.503,891.79,3,1098.76
1449880,-0.008052,1.21219,-0.1281,-5.67,109.34,5.67,-0.16814,-89.5063,182.503,890.79,3,1108.46
1449890,-0.008052,1.21219,-0.1281,-5.67,109.34,5.67,-0.16814,-89.5063,182.503,890.79,3,1108.46
1449900,0.20862,1.21439,-0.522648,-10.43,116.06,5.32,-0.17192,-89.5063,182.503,890.16,3,1114.52
1449910,0.20862,1.21439,-0.522648,-10.43,116.06,5.32,-0.17192,-89.5063,182.503,890.16,3,1114.52
1449920,0.20862,1.21439,-0.522648,-10.43,116.06,5.32,-0.17192,-89.5063,182.503,890.16,3,1114.52
1449930,0.02562,1.2649,0.207888,-2.52,114.59,5.53,-0.17248,-89.5064,182.467,889.11,3,1124.72
1449940,0.02562,1.2649,0.207888,-2.52,114.59,5.53,-0.17248,-89.5064,182.467,889.11,3,1124.72
1449950,0.02562,1.2649,0.207888,-2.52,114.59,5.53,-0.17248,-89.5064,182.467,888.39,3,1131.62
1449960,0.409188,1.24367,0.049044,16.59,110.39,5.88,-0.17584,-89.5064,182.467,888.39,3,1131.62
1449970,0.409188,1.24367,0.049044,16.59,110.39,5.88,-0.17584,-89.5064,182.467,888.39,3,1131.62
1449980,0.039528,1.22098,0.017568,14.0,109.62,4.76,-0.17794,-89.5064,182.467,887.38,3,1141.49
1449990,0.039528,1.22098,0.017568,14.0,109.62,4.76,-0.17794,-89.5064,182.467,887.38,3,1141.49
1450000,0.039528,1.22098,0.017568,14.0,109.62,4.76,-0.17794,-89.5064,182.467,887.38,3,1141.49
1450010,0.09516,1.45961,-0.160308,9.52,113.47,5.32,-0.17934,-89.5064,182.453,886.9,3,1146.07
1450020,0.09516,1.45961,-0.160308,9.52,113.47,5.32,-0.17934,-89.5064,182.453,886.9,3,1146.07
1450030,0.31842,1.47352,-0.220332,2.38,115.01,4.83,-0.1778,-89.5064,182.453,886.08,3,1154.03
1450040,0.31842,1.47352,-0.220332,2.38,115.01,4.83,-0.1778,-89.5064,182.453,886.08,3,1154.03
1450050,0.31842,1.47352,-0.220332,2.38,115.01,4.83,-0.1778,-89.5064,182.453,886.08,3,1154.03
1450060,0.334524,1.18511,0.163236,0.56,107.8,4.34,-0.17948,-89.5064,182.453,885.43,3,1160.35
1450070,0.334524,1.18511,0.163236,0.56,107.8,4.34,-0.17948,-89.5064,182.453,885.43,3,1160.35
1450080,0.334524,1.18511,0.163236,0.56,107.8,4.34,-0.17948,-89.5064,182.453,885.43,3,1160.35
1450090,0.502884,1.24001,0.111996,2.66,112.98,5.81,-0.17948,-89.5064,182.453,884.54,3,1169.01
1450100,0.502884,1.24001,0.111996,2.66,112.98,5.81,-0.17948,-89.5064,182.453,884.54,3,1169.01
1450110,0.236436,1.04749,-0.188124,-1.75,106.47,5.74,-0.17864,-89.5064,182.438,883.68,3,1177.42
1450120,0.236436,1.04749,-0.188124,-1.75,106.47,5.74,-0.17864,-89.5064,182.438,883.68,3,1177.42
1450130,0.236436,1.04749,-0.188124,-1.75,106.47,5.74,-0.17864,-89.5064,182.438,883.68,3,1177.42
1450140,0.207888,1.1507,-0.193248,7.84,100.38,6.02,-0.1806,-89.5064,182.438,883.0,3,1184.05
1450150,0.207888,1.1507,-0.193248,7.84,100.38,6.02,-0.1806,-89.5064,182.438,883.0,3,1184.05
1450160,0.035868,1.14997,-0.074664,13.09,110.32,5.11,-0.17388,-89.5064,182.438,882.1,3,1192.83
1450170,0.035868,1.14997,-0.074664,13.09,110.32,5.11,-0.17388,-89.5064,182.438,882.1,3,1192.83
1450180,0.035868,1.14997,-0.074664,13.09,110.32,5.11,-0.17388,-89.5064,182.438,882.1,3,1192.83
1450190,-0.060024,1.34688,-0.254004,-3.01,102.55,4.06,-0.18046,-89.5064,182.422,881.35,3,1200.2
1450200,-0.060024,1.34688,-0.254004,-3.01,102.55,4.06,-0.18046,-89.5064,182.422,881.35,3,1200.2
1450210,-0.060024,1.34688,-0.254004,-3.01,102.55,4.06,-0.18046,-89.5064,182.422,881.35,3,1200.2
1450220,0.348432,1.4274,0.11712,7.14,110.74,2.8,-0.17234,-89.5064,182.422,880.6,3,1207.49
1450230,0.348432,1.4274,0.11712,7.14,110.74,2.8,-0.17234,-89.5064,182.422,880.6,3,1207.49
1450240,-0.028548,1.20634,0.3294,13.51,103.88,1.33,-0.16702,-89.5064,182.422,880.03,3,1213.06
1450250,-0.028548,1.20634,0.3294,13.51,103.88,1.33,-0.16702,-89.5064,182.422,880.03,3,1213.06
1450260,-0.028548,1.20634,0.3294,13.51,103.88,1.33,-0.16702,-89.5064,182.422,880.03,3,1213.06
1450270,0.0549,1.07677,0.046116,11.48,99.26,1.89,-0.16828,-89.5064,182.422,878.7,3,1226.04
1450280,0.0549,1.07677,0.046116,11.48,99.26,1.89,-0.16828,-89.5064,182.422,878.7,3,1226.04
1450290,0.0549,1.07677,0.046116,11.48,99.26,1.89,-0.16828,-89.5064,182.422,878.7,3,1226.04
1450300,0.0549,1.07677,0.046116,11.48,99.26,1.89,-0.16828,-89.5064,182.422,878.7,3,1226.04
1450310,0.447252,1.23122,0.005856,13.09,95.69,1.47,-0.1582,-89.5064,182.422,878.05,3,1232.42
1450320,0.447252,1.23122,0.005856,13.09,95.69,1.47,-0.1582,-89.5064,182.422,878.05,3,1232.42
1450330,0.447252,1.23122,0.005856,13.09,95.69,1.47,-0.1582,-89.5064,182.422,878.05,3,1232.42
1450340,0.306708,1.29198,-0.10614,3.85,101.64,2.73,-0.16366,-89.5064,182.422,877.41,3,1238.65
1450350,0.306708,1.29198,-0.10614,3.85,101.64,2.73,-0.16366,-89.5064,182.422,877.41,3,1238.65
1450360,0.133224,1.33444,0.206424,17.5,99.12,3.99,-0.1554,-89.5064,182.422,876.65,3,1246.07
1450370,0.133224,1.33444,0.206424,17.5,99.12,3.99,-0.1554,-89.5064,182.422,876.65,3,1246.07
1450380,0.133224,1.33444,0.206424,17.5,99.12,3.99,-0.1554,-89.5064,182.422,876.65,3,1246.07
1450390,0.332328,1.05554,-0.207888,9.52,108.99,6.02,-0.15778,-89.5064,182.405,875.84,3,1254.07
1450400,0.332328,1.05554,-0.207888,9.52,108.99,6.02,-0.15778,-89.5064,182.405,875.84,3,1254.07
1450410,0.332328,1.05554,-0.207888,9.52,108.99,6.02,-0.15778,-89.5064,182.405,875.84,3,1254.07
1450420,0.191052,1.0431,-0.459696,14.84,106.61,6.65,-0.1498,-89.5064,182.405,875.31,3,1259.33
1450430,0.191052,1.0431,-0.459696,14.84,106.61,6.65,-0.1498,-89.5064,182.405,875.31,3,1259.33
1450440,0.16104,1.01748,-0.172752,-5.11,108.71,5.25,-0.14518,-89.5064,182.405,874.36,3,1268.68
1450450,0.16104,1.01748,-0.172752,-5.11,108.71,5.25,-0.14518,-89.5064,182.405,874.36,3,1268.68
1450460,0.16104,1.01748,-0.172752,-5.11,108.71,5.25,-0.14518,-89.5064,182.405,874.36,3,1268.68
1450470,0.206424,1.18291,-0.078324,6.02,107.03,6.23,-0.14168,-89.5064,182.396,873.74,3,1274.78
1450480,0.206424,1.18291,-0.078324,6.02,107.03,6.23,-0.14168,-89.5064,182.396,873.74,3,1274.78
1450490,-0.049776,1.28759,-0.00366,12.46,99.68,5.39,-0.1358,-89.5064,182.396,872.78,3,1284.25
1450500,-0.049776,1.28759,-0.00366,12.46,99.68,5.39,-0.1358,-89.5064,182.396,872.78,3,1284.25
1450510,-0.049776,1.28759,-0.00366,12.46,99.68,5.39,-0.1358,-89.5064,182.396,872.78,3,1284.25
1450520,0.070272,1.2422,0.145668,13.86,96.11,3.85,-0.13398,-89.5064,182.396,872.11,3,1290.86
1450530,0.070272,1.2422,0.145668,13.86,96.11,3.85,-0.13398,-89.5064,182.396,872.11,3,1290.86
1450540,0.070272,1.2422,0.145668,13.86,96.11,3.85,-0.13398,-89.5064,182.396,872.11,3,1290.86
1450550,0.019032,1.34249,0.251076,4.2,96.04,2.52,-0.12306,-89.5064,182.388,871.59,3,1295.95
1450560,0.019032,1.34249,0.251076,4.2,96.04,2.52,-0.12306,-89.5064,182.388,871.59,3,1295.95
1450570,0.071004,1.22171,-0.064416,12.46,104.16,1.54,-0.12152,-89.5064,182.388,870.83,3,1303.55
1450580,0.071004,1.22171,-0.064416,12.46,104.16,1.54,-0.12152,-89.5064,182.388,870.83,3,1303.55
1450590,0.071004,1.22171,-0.064416,12.46,104.16,1.54,-0.12152,-89.5064,182.388,870.83,3,1303.55
1450600,0.0183,1.15436,0.026352,2.45,101.43,0.91,-0.11326,-89.5064,182.388,869.95,3,1312.3
1450610,0.0183,1.15436,0.026352,2.45,101.43,0.91,-0.11326,-89.5064,182.388,869.95,3,1312.3
1450620,0.0183,1.15436,0.026352,2.45,101.43,0.91,-0.11326,-89.5064,182.388,869.95,3,1312.3
1450630,0.30744,1.02626,0.3477,8.75,93.59,0.77,-0.11046,-89.5064,182.388,869.05,3,1321.21
1450640,0.30744,1.02626,0.3477,8.75,93.59,0.77,-0.11046,-89.5064,182.388,869.05,3,1321.21
1450650,0.210816,0.963312,-0.1098,10.15,109.34,-0.42,-0.1085,-89.5064,182.379,868.71,3,1324.58
1450660,0.210816,0.963312,-0.1098,10.15,109.34,-0.42,-0.1085,-89.5064,182.379,868.71,3,1324.58
1450670,0.210816,0.963312,-0.1098,10.15,109.34,-0.42,-0.1085,-89.5064,182.379,868.71,3,1324.58
1450680,-0.155184,1.04456,0.002928,8.54,105.98,0.49,-0.10528,-89.5064,182.379,867.61,3,1335.4
1450690,-0.155184,1.04456,0.002928,8.54,105.98,0.49,-0.10528,-89.5064,182.379,867.61,3,1335.4
1450700,0.177144,1.06433,0.004392,10.78,95.83,0.7,-0.09618,-89.5064,182.379,867.23,3,1339.36
1450710,0.177144,1.06433,0.004392,10.78,95.83,0.7,-0.09618,-89.5064,182.379,867.23,3,1339.36
1450720,0.177144,1.06433,0.004392,10.78,95.83,0.7,-0.09618,-89.5064,182.379,867.23,3,1339.36
1450730,0.166896,1.1185,0.04758,4.62,99.89,0.49,-0.09268,-89.5064,182.37,866.71,3,1344.52
1450740,0.166896,1.1185,0.04758,4.62,99.89,0.49,-0.09268,-89.5064,182.37,866.71,3,1344.52
1450750,0.166896,1.1185,0.04758,4.62,99.89,0.49,-0.09268,-89.5064,182.37,866.71,3,1344.52
1450760,0.199104,1.14412,0.006588,3.85,101.99,1.4,-0.08582,-89.5064,182.37,866.09,3,1350.5
1450770,0.199104,1.14412,0.006588,3.85,101.99,1.4,-0.08582,-89.5064,182.37,866.09,3,1350.5
1450780,0.388692,1.01528,-0.2562,3.57,89.53,2.24,-0.08302,-89.5064,182.37,865.33,3,1358.15
1450790,0.388692,1.01528,-0.2562,3.57,89.53,2.24,-0.08302,-89.5064,182.37,865.33,3,1358.15
1450800,0.388692,1.01528,-0.2562,3.57,89.53,2.24,-0.08302,-89.5064,182.37,865.33,3,1358.15
1450810,0.196908,0.965508,-0.079788,21.35,93.24,3.64,-0.07392,-89.5065,182.362,864.58,3,1365.62
1450820,0.196908,0.965508,-0.079788,21.35,93.24,3.64,-0.07392,-89.5065,182.362,864.58,3,1365.62
1450830,0.194712,0.965508,-0.245952,10.71,97.65,4.41,-0.06692,-89.5065,182.362,864.03,4,1371.05
1450840,0.194712,0.965508,-0.245952,10.71,97.65,4.41,-0.06692,-89.5065,182.362,864.03,4,1371.05
1450850,0.194712,0.965508,-0.245952,10.71,97.65,4.41,-0.06692,-89.5065,182.362,864.03,4,1371.05
1450860,0.090768,1.10532,-0.079788,5.6,89.81,5.88,-0.05936,-89.5065,182.362,863.41,4,1377.28
1450870,0.090768,1.10532,-0.079788,5.6,89.81,5.88,-0.05936,-89.5065,182.362,863.41,4,1377.28
1450880,0.090768,1.10532,-0.079788,5.6,89.81,5.88,-0.05936,-89.5065,182.362,863.41,4,1377.28
1450890,0.465552,0.931836,0.121512,12.95,102.83,6.51,-0.05194,-89.5065,182.362,862.56,4,1385.71
1450900,0.465552,0.931836,0.121512,12.95,102.83,6.51,-0.05194,-89.5065,182.362,862.56,4,1385.71
1450910,-0.176412,1.02041,-0.291336,4.97,96.53,7.42,-0.04396,-89.5065,182.353,861.82,4,1393.1
1450920,-0.176412,1.02041,-0.291336,4.97,96.53,7.42,-0.04396,-89.5065,182.353,861.82,4,1393.1
1450930,-0.176412,1.02041,-0.291336,4.97,96.53,7.42,-0.04396,-89.5065,182.353,861.82,4,1393.1
1450940,0.203496,0.98088,0.337452,14.91,91.84,6.93,-0.03878,-89.5065,182.353,861.44,4,1397.04
1450950,0.203496,0.98088,0.337452,14.91,91.84,6.93,-0.03878,-89.5065,182.353,861.44,4,1397.04
1450960,0.121512,0.946476,0.02928,6.37,99.96,6.16,-0.0336,-89.5065,182.353,860.33,4,1408.05
1450970,0.121512,0.946476,0.02928,6.37,99.96,6.16,-0.0336,-89.5065,182.353,860.33,4,1408.05
1450980,0.121512,0.946476,0.02928,6.37,99.96,6.16,-0.0336,-89.5065,182.353,860.33,4,1408.05
1450990,0.291336,1.04237,-0.041724,-0.63,94.64,6.09,-0.021,-89.5065,182.345,859.65,4,1414.86
1451000,0.291336,1.04237,-0.041724,-0.63,94.64,6.09,-0.021,-89.5065,182.345,859.65,4,1414.86
1451010,0.291336,1.04237,-0.041724,-0.63,94.64,6.09,-0.021,-89.5065,182.345,859.65,4,1414.86
1451020,-0.147132,0.97356,0.341112,6.93,93.03,5.32,-0.01988,-89.5065,182.345,859.24,4,1418.96
1451030,-0.147132,0.97356,0.341112,6.93,93.03,5.32,-0.01988,-89.5065,182.345,859.24,4,1418.96
1451040,0.381372,0.76494,-0.185928,4.13,92.61,4.76,-0.01148,-89.5065,182.345,858.8,4,1423.37
1451050,0.381372,0.76494,-0.185928,4.13,92.61,4.76,-0.01148,-89.5065,182.345,858.8,4,1423.37
1451060,0.381372,0.76494,-0.185928,4.13,92.61,4.76,-0.01148,-89.5065,182.345,858.8,4,1423.37
1451070,-0.038064,1.03066,-0.06954,3.64,101.36,4.62,-0.0007,-89.5065,182.345,857.44,4,1436.92
1451080,-0.038064,1.03066,-0.06954,3.64,101.36,4.62,-0.0007,-89.5065,182.345,857.44,4,1436.92
1451090,-0.038064,1.03066,-0.06954,3.64,101.36,4.62,-0.0007,-89.5065,182.345,857.44,4,1436.92
1451100,-0.038064,1.03066,-0.06954,3.64,101.36,4.62,-0.0007,-89.5065,182.345,857.44,4,1436.92
1451110,0.20862,0.997716,0.116388,11.41,107.94,5.25,0.01302,-89.5065,182.345,856.99,4,1441.39
1451120,0.20862,0.997716,0.116388,11.41,107.94,5.25,0.01302,-89.5065,182.345,856.99,4,1441.39
1451130,0.20862,0.997716,0.116388,11.41,107.94,5.25,0.01302,-89.5065,182.345,856.99,4,1441.39
1451140,0.383568,0.742248,-0.17202,7.42,103.6,4.76,0.01218,-89.5065,182.345,856.08,5,1450.44
1451150,0.383568,0.742248,-0.17202,7.42,103.6,4.76,0.01218,-89.5065,182.345,856.08,5,1450.44
1451160,0.383568,0.742248,-0.17202,7.42,103.6,4.76,0.01218,-89.5065,182.345,855.61,5,1455.17
1451170,-0.097356,0.946476,-0.149328,-0.42,97.72,4.41,0.01932,-89.5065,182.345,855.61,5,1455.17
1451180,-0.097356,0.946476,-0.149328,-0.42,97.72,4.41,0.01932,-89.5065,182.345,855.61,5,1455.17
1451190,0.196176,0.979416,-0.161772,5.95,97.93,4.69,0.02184,-89.5065,182.328,855.25,5,1458.89
1451200,0.196176,0.979416,-0.161772,5.95,97.93,4.69,0.02184,-89.5065,182.328,855.25,5,1458.89
1451210,0.196176,0.979416,-0.161772,5.95,97.93,4.69,0.02184,-89.5065,182.328,855.25,5,1458.89
1451220,0.120048,0.909876,0.05124,-4.27,105.42,4.13,0.03346,-89.5065,182.328,859.29,5,1418.37
1451230,0.120048,0.909876,0.05124,-4.27,105.42,4.13,0.03346,-89.5065,182.328,859.29,5,1418.37
1451240,0.044652,0.94794,0.234972,8.4,94.85,4.55,0.03598,-89.5065,182.328,862.86,5,1382.67
1451250,0.044652,0.94794,0.234972,8.4,94.85,4.55,0.03598,-89.5065,182.328,862.86,5,1382.67
1451260,0.044652,0.94794,0.234972,8.4,94.85,4.55,0.03598,-89.5065,182.328,862.86,5,1382.67
1451270,0.226188,0.756888,-0.279624,11.76,99.96,4.13,0.0497,-89.5065,182.328,867.24,5,1338.94
1451280,0.226188,0.756888,-0.279624,11.76,99.96,4.13,0.0497,-89.5065,182.328,867.24,5,1338.94
1451290,0.226188,0.756888,-0.279624,11.76,99.96,4.13,0.0497,-89.5065,182.328,867.24,5,1338.94
1451300,0.226188,0.756888,-0.279624,11.76,99.96,4.13,0.0497,-89.5065,182.328,867.24,5,1338.94
1451310,-0.335256,1.24513,0.520452,-0.84,104.02,4.13,0.05488,-89.5065,182.328,868.52,5,1326.24
1451320,-0.335256,1.24513,0.520452,-0.84,104.02,4.13,0.05488,-89.5065,182.328,868.52,5,1326.24
1451330,-0.335256,1.24513,0.520452,-0.84,104.02,4.13,0.05488,-89.5065,182.328,868.52,5,1326.24
1451340,-0.480192,1.42081,-0.4392,10.64,101.5,3.99,0.06342,-89.5065,182.328,870.4,5,1307.67
1451350,-0.480192,1.42081,-0.4392,10.64,101.5,3.99,0.06342,-89.5065,182.328,870.4,5,1307.67
1451360,0.176412,0.96258,0.341844,-9.45,114.31,4.48,0.07252,-89.5065,182.328,871.39,5,1297.93
1451370,0.176412,0.96258,0.341844,-9.45,114.31,4.48,0.07252,-89.5065,182.328,871.39,5,1297.93
1451380,0.176412,0.96258,0.341844,-9.45,114.31,4.48,0.07252,-89.5065,182.328,871.39,5,1297.93
1451390,0.054168,1.15217,-0.569496,6.93,111.72,4.2,0.06174,-89.5065,182.311,871.58,5,1296.05
1451400,0.054168,1.15217,-0.569496,6.93,111.72,4.2,0.06174,-89.5065,182.311,871.58,5,1296.05
1451410,0.054168,1.15217,-0.569496,6.93,111.72,4.2,0.06174,-89.5065,182.311,871.58,5,1296.05
1451420,0.339648,0.869616,-0.084912,6.51,118.44,5.88,0.07784,-89.5065,182.311,870.5,5,1306.68
1451430,0.339648,0.869616,-0.084912,6.51,118.44,5.88,0.07784,-89.5065,182.311,870.5,5,1306.68
1451440,0.162504,0.79788,-0.063684,2.45,118.3,5.11,0.08708,-89.5065,182.311,870.25,5,1309.15
1451450,0.162504,0.79788,-0.063684,2.45,118.3,5.11,0.08708,-89.5065,182.311,870.25,5,1309.15
1451460,0.162504,0.79788,-0.063684,2.45,118.3,5.11,0.08708,-89.5065,182.311,870.25,5,1309.15
1451470,0.439932,1.08702,-0.354288,-1.26,122.08,4.97,0.08946,-89.5065,182.311,868.52,5,1326.2
1451480,0.439932,1.08702,-0.354288,-1.26,122.08,4.97,0.08946,-89.5065,182.311,868.52,5,1326.2
1451490,0.439932,1.08702,-0.354288,-1.26,122.08,4.97,0.08946,-89.5065,182.311,868.52,5,1326.2
1451500,0.439932,1.08702,-0.354288,-1.26,122.08,4.97,0.08946,-89.5065,182.311,868.52,5,1326.2
1451510,0.105408,1.01089,-0.452376,6.09,114.8,4.69,0.09828,-89.5065,182.311,868.09,5,1330.55
1451520,0.105408,1.01089,-0.452376,6.09,114.8,4.69,0.09828,-89.5065,182.311,868.09,5,1330.55
1451530,0.105408,1.01089,-0.452376,6.09,114.8,4.69,0.09828,-89.5065,182.311,868.09,5,1330.55
1451540,0.26718,1.03724,0.06222,15.33,130.62,5.25,0.09618,-89.5065,182.311,867.22,5,1339.23
1451550,0.26718,1.03724,0.06222,15.33,130.62,5.25,0.09618,-89.5065,182.311,867.22,5,1339.23
1451560,0.143472,1.12655,-0.019764,3.71,126.56,4.69,0.10836,-89.5065,182.311,866.39,5,1347.56
1451570,0.143472,1.12655,-0.019764,3.71,126.56,4.69,0.10836,-89.5065,182.311,866.39,5,1347.56
1451580,0.143472,1.12655,-0.019764,3.71,126.56,4.69,0.10836,-89.5065,182.311,866.39,5,1347.56
1451590,0.383568,0.923784,0.312564,11.69,126.98,4.69,0.1134,-89.5065,182.294,865.59,5,1355.43
1451600,0.383568,0.923784,0.312564,11.69,126.98,4.69,0.1134,-89.5065,182.294,865.59,5,1355.43
1451610,0.383568,0.923784,0.312564,11.69,126.98,4.69,0.1134,-89.5065,182.294,864.85,5,1362.7
1451620,-0.121512,1.24806,0.027084,-10.43,142.73,3.92,0.11928,-89.5065,182.294,864.85,5,1362.7
1451630,-0.121512,1.24806,0.027084,-10.43,142.73,3.92,0.11928,-89.5065,182.294,864.85,5,1362.7
1451640,0.614148,0.865956,-0.21594,7.56,140.21,4.34,0.12264,-89.5065,182.294,864.22,5,1369.11
1451650,0.614148,0.865956,-0.21594,7.56,140.21,4.34,0.12264,-89.5065,182.294,864.22,5,1369.11
1451660,0.614148,0.865956,-0.21594,7.56,140.21,4.34,0.12264,-89.5065,182.294,864.22,5,1369.11
1451670,-0.238632,1.29418,0.338184,6.16,128.59,3.57,0.12264,-89.5065,182.294,863.07,5,1380.43
1451680,-0.238632,1.29418,0.338184,6.16,128.59,3.57,0.12264,-89.5065,182.294,863.07,5,1380.43
1451690,-0.238632,1.29418,0.338184,6.16,128.59,3.57,0.12264,-89.5065,182.294,863.07,5,1380.43
1451700,-0.238632,1.29418,0.338184,6.16,128.59,3.57,0.12264,-89.5065,182.294,863.07,5,1380.43
1451710,-0.214476,0.901092,0.33306,8.68,136.64,4.27,0.13216,-89.5065,182.294,862.31,5,1388.07
1451720,-0.214476,0.901092,0.33306,8.68,136.64,4.27,0.13216,-89.5065,182.294,862.31,5,1388.07
1451730,-0.214476,0.901092,0.33306,8.68,136.64,4.27,0.13216,-89.5065,182.294,862.31,5,1388.07
1451740,-0.042456,1.02992,0.10614,15.19,132.23,4.06,0.12502,-89.5065,182.294,861.19,5,1399.16
1451750,-0.042456,1.02992,0.10614,15.19,132.23,4.06,0.12502,-89.5065,182.294,861.19,5,1399.16
1451760,0.227652,0.902556,-0.04758,-9.66,142.24,6.16,0.12796,-89.5065,182.294,860.72,5,1403.91
1451770,0.227652,0.902556,-0.04758,-9.66,142.24,6.16,0.12796,-89.5065,182.294,860.72,5,1403.91
1451780,0.227652,0.902556,-0.04758,-9.66,142.24,6.16,0.12796,-89.5065,182.294,860.72,5,1403.91
1451790,0.23424,0.680028,0.144936,4.27,136.57,5.39,0.13034,-89.5065,182.294,860.04,5,1410.71
1451800,0.23424,0.680028,0.144936,4.27,136.57,5.39,0.13034,-89.5065,182.294,860.04,5,1410.71
1451810,0.23424,0.680028,0.144936,4.27,136.57,5.39,0.13034,-89.5065,182.276,860.04,5,1410.71
1451820,0.23424,0.680028,0.144936,4.27,136.57,5.39,0.13034,-89.5065,182.276,860.04,5,1410.71
1451830,-0.084912,0.9333,0.313296,5.74,132.16,6.16,0.13076,-89.5065,182.276,859.37,5,1417.32
1451840,-0.084912,0.9333,0.313296,5.74,132.16,6.16,0.13076,-89.5065,182.276,859.37,5,1417.32
1451850,0.046848,1.04969,-0.200568,1.75,142.52,6.79,0.12586,-89.5065,182.276,858.61,5,1424.99
1451860,0.046848,1.04969,-0.200568,1.75,142.52,6.79,0.12586,-89.5065,182.276,858.61,5,1424.99
1451870,0.046848,1.04969,-0.200568,1.75,142.52,6.79,0.12586,-89.5065,182.276,858.61,5,1424.99
1451880,-0.0183,1.04749,-0.043188,10.43,141.61,5.74,0.1288,-89.5065,182.276,857.55,5,1435.67
1451890,-0.0183,1.04749,-0.043188,10.43,141.61,5.74,0.1288,-89.5065,182.276,857.55,5,1435.67
1451900,0.169092,0.725412,-0.073932,-2.31,147.28,5.46,0.12796,-89.5066,182.268,856.77,5,1443.56
1451910,0.169092,0.725412,-0.073932,-2.31,147.28,5.46,0.12796,-89.5066,182.268,856.77,5,1443.56
1451920,0.169092,0.725412,-0.073932,-2.31,147.28,5.46,0.12796,-89.5066,182.268,856.77,5,1443.56
1451930,0.128832,0.537288,-0.147132,11.13,130.62,5.53,0.12572,-89.5066,182.268,855.73,5,1453.96
1451940,0.128832,0.537288,-0.147132,11.13,130.62,5.53,0.12572,-89.5066,182.268,855.73,5,1453.96
1451950,0.128832,0.537288,-0.147132,11.13,130.62,5.53,0.12572,-89.5066,182.268,855.73,5,1453.96
1451960,-0.096624,0.994788,0.005124,2.87,134.33,4.62,0.12376,-89.5066,182.268,854.86,5,1462.77
1451970,-0.096624,0.994788,0.005124,2.87,134.33,4.62,0.12376,-89.5066,182.268,854.86,5,1462.77
1451980,0.107604,0.557052,-0.068076,5.18,138.95,5.6,0.11914,-89.5066,182.251,854.26,5,1468.77
1451990,0.107604,0.557052,-0.068076,5.18,138.95,5.6,0.11914,-89.5066,182.251,854.26,5,1468.77
1452000,0.107604,0.557052,-0.068076,5.18,138.95,5.6,0.11914,-89.5066,182.251,854.26,5,1468.77
1452010,0.242292,1.03212,-0.238632,2.59,140.0,5.95,0.1078,-89.5066,182.251,853.45,5,1476.98
1452020,0.242292,1.03212,-0.238632,2.59,140.0,5.95,0.1078,-89.5066,182.251,853.45,5,1476.98
1452030,0.242292,1.03212,-0.238632,2.59,140.0,5.95,0.1078,-89.5066,182.251,853.45,5,1476.98
1452040,0.084912,0.827892,-0.155184,8.12,150.43,6.44,0.09898,-89.5066,182.251,852.88,5,1482.73
1452050,0.084912,0.827892,-0.155184,8.12,150.43,6.44,0.09898,-89.5066,182.251,852.88,5,1482.73
1452060,0.084912,0.827892,-0.155184,8.12,150.43,6.44,0.09898,-89.5066,182.251,852.88,5,1482.73
1452070,-0.239364,0.769332,-0.185196,-1.89,150.78,6.65,0.09632,-89.5066,182.251,852.05,5,1491.17
1452080,-0.239364,0.769332,-0.185196,-1.89,150.78,6.65,0.09632,-89.5066,182.251,852.05,5,1491.17
1452090,0.668316,0.764208,-0.461892,5.53,141.89,6.16,0.08442,-89.5066,182.251,851.01,5,1501.53
1452100,0.668316,0.764208,-0.461892,5.53,141.89,6.16,0.08442,-89.5066,182.251,851.01,5,1501.53
1452110,0.668316,0.764208,-0.461892,5.53,141.89,6.16,0.08442,-89.5066,182.251,851.01,5,1501.53
1452120,0.668316,0.764208,-0.461892,5.53,141.89,6.16,0.08442,-89.5066,182.251,851.01,5,1501.53
1452130,0.19398,0.89304,-0.275232,-0.77,141.68,6.93,0.08092,-89.5066,182.251,850.74,5,1504.31
1452140,0.19398,0.89304,-0.275232,-0.77,141.68,6.93,0.08092,-89.5066,182.251,850.74,5,1504.31
1452150,0.19398,0.89304,-0.275232,-0.77,141.68,6.93,0.08092,-89.5066,182.251,850.74,5,1504.31
1452160,0.249612,0.826428,-0.641232,6.3,132.72,6.65,0.07756,-89.5066,182.251,849.85,5,1513.32
1452170,0.249612,0.826428,-0.641232,6.3,132.72,6.65,0.07756,-89.5066,182.251,849.85,5,1513.32
1452180,0.249612,0.826428,-0.641232,6.3,132.72,6.65,0.07756,-89.5066,182.251,849.85,5,1513.32
1452190,0.269376,0.66246,-0.119316,-3.15,136.22,6.02,0.06608,-89.5066,182.251,848.75,5,1524.47
1452200,0.269376,0.66246,-0.119316,-3.15,136.22,6.02,0.06608,-89.5066,182.251,848.75,5,1524.47
1452210,0.529968,1.18804,-0.357216,6.16,136.5,5.74,0.06706,-89.5066,182.242,848.0,5,1532.09
1452220,0.529968,1.18804,-0.357216,6.16,136.5,5.74,0.06706,-89.5066,182.242,848.0,5,1532.09
1452230,0.529968,1.18804,-0.357216,6.16,136.5,5.74,0.06706,-89.5066,182.242,848.0,5,1532.09
1452240,0.213744,0.90402,0.116388,9.31,132.79,5.11,0.0546,-89.5066,182.242,847.4,5,1538.34
1452250,0.213744,0.90402,0.116388,9.31,132.79,5.11,0.0546,-89.5066,182.242,847.4,5,1538.34
1452260,0.52704,0.58194,0.191052,15.4,139.51,5.25,0.04732,-89.5066,182.242,846.87,5,1543.62
1452270,0.52704,0.58194,0.191052,15.4,139.51,5.25,0.04732,-89.5066,182.242,846.87,5,1543.62
1452280,0.52704,0.58194,0.191052,15.4,139.51,5.25,0.04732,-89.5066,182.242,846.87,5,1543.62
1452290,0.05856,0.655872,-0.149328,7.98,136.01,3.36,0.03822,-89.5066,182.234,845.92,5,1553.28
1452300,0.05856,0.655872,-0.149328,7.98,136.01,3.36,0.03822,-89.5066,182.234,845.92,5,1553.28
1452310,0.05856,0.655872,-0.149328,7.98,136.01,3.36,0.03822,-89.5066,182.234,845.92,5,1553.28
1452320,-0.035868,0.75396,-0.259128,7.14,134.96,2.38,0.03024,-89.5066,182.234,845.11,5,1561.58
1452330,-0.035868,0.75396,-0.259128,7.14,134.96,2.38,0.03024,-89.5066,182.234,845.11,5,1561.58
1452340,0.277428,0.548268,-0.09882,11.06,122.99,2.38,0.02324,-89.5066,182.234,844.7,5,1565.81
1452350,0.277428,0.548268,-0.09882,11.06,122.99,2.38,0.02324,-89.5066,182.234,844.7,5,1565.81
1452360,0.277428,0.548268,-0.09882,11.06,122.99,2.38,0.02324,-89.5066,182.234,844.7,5,1565.81
1452370,0.145668,0.756888,-0.218868,-3.08,134.4,1.82,0.00504,-89.5066,182.234,843.49,5,1577.99
1452380,0.145668,0.756888,-0.218868,-3.08,134.4,1.82,0.00504,-89.5066,182.234,843.49,5,1577.99
1452390,0.145668,0.756888,-0.218868,-3.08,134.4,1.82,0.00504,-89.5066,182.234,843.49,5,1577.99
1452400,0.145668,0.756888,-0.218868,-3.08,134.4,1.82,0.00504,-89.5066,182.234,843.49,5,1577.99
1452410,0.075396,0.535092,0.040992,7.0,132.02,2.17,-0.00658,-89.5066,182.234,843.35,5,1579.42
1452420,0.075396,0.535092,0.040992,7.0,132.02,2.17,-0.00658,-89.5066,182.234,843.35,5,1579.42
1452430,0.075396,0.535092,0.040992,7.0,132.02,2.17,-0.00658,-89.5066,182.234,843.35,5,1579.42
1452440,-0.1281,0.675636,-0.064416,9.31,132.02,2.24,-0.02086,-89.5066,182.234,842.66,5,1586.42
1452450,-0.1281,0.675636,-0.064416,9.31,132.02,2.24,-0.02086,-89.5066,182.234,842.66,5,1586.42
1452460,0.096624,0.800076,-0.184464,0.07,135.73,3.99,-0.03178,-89.5066,182.234,841.94,5,1593.83
1452470,0.096624,0.800076,-0.184464,0.07,135.73,3.99,-0.03178,-89.5066,182.234,841.94,5,1593.83
1452480,0.096624,0.800076,-0.184464,0.07,135.73,3.99,-0.03178,-89.5066,182.234,841.94,5,1593.83
1452490,0.00366,1.00284,-0.176412,1.12,128.17,4.27,-0.04228,-89.5066,182.217,841.63,5,1597.11
1452500,0.00366,1.00284,-0.176412,1.12,128.17,4.27,-0.04228,-89.5066,182.217,841.63,5,1597.11
1452510,0.00366,1.00284,-0.176412,1.12,128.17,4.27,-0.04228,-89.5066,182.217,841.63,5,1597.11
1452520,0.072468,0.765672,0.06954,2.31,139.51,5.81,-0.05054,-89.5066,182.217,840.84,5,1605.19
1452530,0.072468,0.765672,0.06954,2.31,139.51,5.81,-0.05054,-89.5066,182.217,840.84,5,1605.19
1452540,0.009516,0.825696,0.136884,3.78,132.93,5.81,-0.06048,-89.5066,182.217,840.37,5,1610.01
1452550,0.009516,0.825696,0.136884,3.78,132.93,5.81,-0.06048,-89.5066,182.217,840.37,5,1610.01
1452560,0.009516,0.825696,0.136884,3.78,132.93,5.81,-0.06048,-89.5066,182.217,840.37,5,1610.01
1452570,-0.081984,0.73566,0.128832,9.38,134.68,6.86,-0.06748,-89.5066,182.217,838.81,5,1625.84
1452580,-0.081984,0.73566,0.128832,9.38,134.68,6.86,-0.06748,-89.5066,182.217,838.81,5,1625.84
1452590,-0.081984,0.73566,0.128832,9.38,134.68,6.86,-0.06748,-89.5066,182.217,838.81,5,1625.84
1452600,-0.081984,0.73566,0.128832,9.38,134.68,6.86,-0.06748,-89.5066,182.217,838.81,5,1625.84
1452610,0.269376,0.886452,-0.586332,9.38,124.6,6.86,-0.07588,-89.5066,182.217,838.29,5,1631.18
1452620,0.269376,0.886452,-0.586332,9.38,124.6,6.86,-0.07588,-89.5066,182.217,838.29,5,1631.18
1452630,0.269376,0.886452,-0.586332,9.38,124.6,6.86,-0.07588,-89.5066,182.217,838.29,5,1631.18
1452640,0.5307,0.647088,-0.114924,21.49,124.88,6.16,-0.08498,-89.5066,182.217,837.21,5,1642.28
1452650,0.5307,0.647088,-0.114924,21.49,124.88,6.16,-0.08498,-89.5066,182.217,837.21,5,1642.28
1452660,0.202032,0.81984,-0.117852,11.97,129.15,5.04,-0.09674,-89.5066,182.217,836.62,5,1648.34
1452670,0.202032,0.81984,-0.117852,11.97,129.15,5.04,-0.09674,-89.5066,182.217,836.62,5,1648.34
1452680,0.202032,0.81984,-0.117852,11.97,129.15,5.04,-0.09674,-89.5066,182.217,836.62,5,1648.34
1452690,-0.426756,0.752496,-0.125172,0.14,126.84,3.92,-0.10528,-89.5066,182.199,835.77,5,1657.15
1452700,-0.426756,0.752496,-0.125172,0.14,126.84,3.92,-0.10528,-89.5066,182.199,835.77,5,1657.15
1452710,-0.426756,0.752496,-0.125172,0.14,126.84,3.92,-0.10528,-89.5066,182.199,835.77,5,1657.15
1452720,-0.031476,0.921588,0.163236,6.16,127.96,2.59,-0.1106,-89.5066,182.199,835.18,5,1663.29
1452730,-0.031476,0.921588,0.163236,6.16,127.96,2.59,-0.1106,-89.5066,182.199,835.18,5,1663.29
1452740,0.30012,0.679296,-0.075396,3.15,126.98,1.61,-0.1197,-89.5066,182.199,834.66,5,1668.76
1452750,0.30012,0.679296,-0.075396,3.15,126.98,1.61,-0.1197,-89.5066,182.199,834.66,5,1668.76
